temperature,humidity,light,accel_x,accel_y,accel_z,gyro_x,gyro_y,gyro_z,health
43.51886554649973,84.43870105572626,0,1561.988473673754,2839.103169187016,14165.746582409503,21.576943099295185,-700.1172860141218,289.9640935110702,WARNING
48.56685588869921,81.62788277885275,1,5002.544925182216,2247.261406953842,12615.78581788893,-340.8278002424572,579.2227942338017,-32.080543432966735,WARNING
54.5311981637905,81.73857345294158,1,1937.8613765285766,2146.5073915612475,13943.151701863075,1544.050446874178,-269.4765701659142,1004.9513040694529,WARNING
23.16668706749204,74.53603067428007,0,829.4748419317485,-193.82613877280352,16119.48515868939,-400.7724728813507,127.08360604184527,-247.8516789706945,HEALTHY
69.41090413550573,99.04864126110597,1,-4639.94007265023,144.43031793685796,14462.34602901237,-2948.491307696932,5201.884654414356,-2074.856310285516,CRITICAL
48.203275384612745,81.95331341517733,1,554.4269561034638,-3457.2397981813447,17477.561214307338,-525.3830323021339,-2198.990178907582,555.6307001693931,WARNING
52.73441690272784,92.70814645867061,0,-1309.2607072238134,-3414.4898201273622,14420.705199341905,1364.2741780133333,514.9586005489581,648.1329237094026,WARNING
87.9423538348756,93.78172437226934,0,-3642.886059763872,5870.758799909606,15731.625319186627,-2748.8602136939235,378.1952610943464,-809.7672201185821,CRITICAL
27.716919916098412,43.40225541956964,0,1558.721212843437,-1087.072376569513,15947.640531281759,-481.5736653853771,-159.13795259905524,-36.769376144375855,HEALTHY
69.1972189257689,91.40832293293455,0,12127.16159748453,-1297.8019707810577,20554.987498906397,30.706903511954152,-2776.6090166269873,-1041.3781910382886,CRITICAL
65.7535329430632,89.35764119167284,1,-2911.2038524928357,2734.1919875985973,16627.21286899043,-1985.374365810029,-1720.8633186740658,246.509608182471,CRITICAL
31.534811227707657,77.79062919529711,1,-1350.7219529415065,-637.2355320758775,15727.471048531183,-155.8160458495751,-174.42075308071182,-134.2047822301391,HEALTHY
30.039731245452526,75.53088786046024,0,836.1456557057672,1453.714096879472,16441.188617191863,91.29395028574156,48.678761181539066,-418.6877910413317,HEALTHY
53.49521667433028,82.91155829392248,1,1359.135320701517,4004.7469789749534,14413.226838062592,-609.1142104459315,-1875.9891401751281,-205.49678561362032,WARNING
68.51399741924172,93.02280651318196,1,13924.231548264434,-2778.012256718534,16515.055782593372,-310.93179722689416,-2882.6530785660943,1838.2848246750657,CRITICAL
34.14947595868479,61.11088836275508,0,1020.0485932766181,2021.5718798840037,18082.951743891994,-231.10694277657498,-322.1406832214993,65.37048133970308,HEALTHY
56.670792630875475,83.1020425409424,1,-452.46466503580467,1558.5199349875686,15895.993032927081,-508.24010764604674,238.9409815417265,1753.6856718314252,WARNING
28.168329869820134,46.39519053465766,0,-934.1477131078445,613.9584082708138,17638.31353293864,-40.158999373724875,-202.12423415788115,352.19791704507037,HEALTHY
77.13915009588159,87.80567745504892,0,-1823.0024246069906,1680.7752874049145,20069.62934565119,28.81633316418162,1130.8962413357376,1871.902609641285,CRITICAL
69.40214896041903,96.88032089769136,0,-1136.9779524040691,-9367.087071137368,9812.950491187248,-2407.8806944823114,1537.5009505031496,343.3998614836605,CRITICAL
31.65720373891155,62.3361699894322,0,-791.7199786555796,-1171.9768544504452,14797.536381573665,-84.43543499019937,288.7494419371523,-382.98147392190447,HEALTHY
30.62734546239196,46.88356917181038,0,1081.9420597408491,995.5324690830807,17200.07284339385,-14.842195709878164,217.49283480629938,184.83236477118055,HEALTHY
27.98176958688174,50.655105657200956,1,90.90908943434984,-3051.971727341344,13636.019685192088,221.70654400165088,-107.77904579719377,-69.2424463004278,HEALTHY
74.67474467090972,99.47341185216723,0,11899.635935524562,-4802.346625780139,11089.664181528275,1099.339626976099,159.57686286464764,653.7048125218686,CRITICAL
57.52971226174731,92.04279127708952,1,2218.190474893959,-2145.083258235996,16542.10128615941,222.92398670473938,66.94369655617317,-320.7009916349588,WARNING
84.55106874267386,87.82692118977198,0,307.46106991812167,-903.5300364518032,15564.657344781188,-47.60741619146593,-1863.533417692473,564.4355099412857,CRITICAL
82.67461045071254,88.87516799755682,1,-1402.0397503495421,6457.072401629488,22746.425266471917,-3297.135199225754,-1386.4666734338944,-1440.3220391436778,CRITICAL
44.88904420513324,91.65698083182885,1,-3026.3563320970043,96.20036911740387,13713.6594948387,252.15450412313072,861.9655248901598,202.56202133725267,WARNING
20.848784842200736,54.95684188051254,1,-558.9947278819981,340.0593668608015,17055.48060100692,132.2845568166694,84.89461884958192,-33.61869319304887,HEALTHY
41.91535772399254,78.20689287810332,1,410.0398916015281,663.2971761205476,15095.259222429298,410.375262871177,-582.3480767534063,-472.36997096179584,WARNING
48.7931146811833,83.92573336948702,1,-5846.070500607744,-1538.381916903585,20095.14773206425,-920.3414155036174,838.7932256512453,-12.506606980759807,WARNING
55.93107246202641,92.03061610574987,0,1323.8136108201497,2140.603530741376,15042.606790472013,140.9525800791399,401.6148375609059,-127.24546294607504,WARNING
30.809244359955727,60.01220625418059,1,1000.5108677584325,-475.73581221467066,17331.013964159607,-182.9439010658823,294.76246673317604,174.41274138665517,HEALTHY
79.67965839721705,93.96329928842941,0,4313.483023220091,-7080.14348459104,5311.634048662575,1641.9641848338215,-2167.0923848970374,-3328.3659091420545,CRITICAL
24.679760304896277,59.30001680941443,1,695.5377575657775,849.1021107431441,16090.033052335817,-14.319850371613366,-303.57474933616186,-71.40584016132188,HEALTHY
20.66991824568348,52.38237206052294,1,-456.49729846836175,1284.4370527773838,17427.84544217267,-4.2690604344827365,203.95530543765764,-473.73824137043175,HEALTHY
66.20830349472477,93.39262950155992,0,7551.101205057701,-8820.757457111924,13422.918225742244,-1050.1386446282656,-111.75750897876775,182.08794139720374,CRITICAL
22.75163294605152,74.19896078245897,0,-325.9113127001942,-10.484976856004451,18141.583772231672,-214.7070570150612,-267.6318137246246,-17.43972975262984,HEALTHY
25.197862519290773,55.904495142114826,0,390.5939061992364,2453.9033459435705,17126.749961786925,272.95976194846696,374.3495637387849,97.85118339988892,HEALTHY
40.9045926184043,75.03745487838337,0,5594.623147921457,-5511.351265419521,18380.464256608608,-923.8599725461253,-735.6245626790871,744.7677560562523,WARNING
32.03964964693566,58.327475469515704,0,909.2161664531275,1428.0314852347879,16483.90554390241,29.192321942630034,-92.86406889949326,-69.21688343448159,HEALTHY
21.573037497987215,69.49620824375276,1,-646.5728842425267,-1081.5480036143952,18071.141635072563,176.3279513898901,-1.5945282633234752,295.98882777800526,HEALTHY
24.196189516536066,53.279931769510604,0,-10.937837016195571,-657.484937966344,14451.83283747395,-135.09623540798557,134.62640413794247,-474.05049601316244,HEALTHY
30.411085002964768,60.76652158298162,1,218.96391585597507,-841.8216318681523,13948.687668217111,136.8326417217909,-162.9512005647096,35.230090377538424,HEALTHY
54.72610031961821,75.74465209831875,0,3773.1000495687517,955.2929264812947,16785.713745314133,1130.3482779731291,941.2796212614304,455.9316663966427,WARNING
58.71343726163452,82.83787841871828,0,1301.9857642318814,-1232.2122809592954,18258.845982362098,-1180.813865961137,-176.64743739362336,408.5979938767649,WARNING
86.47922382782885,90.73799604159342,1,-2409.0787974174336,-9455.331171345064,9818.176716439537,870.3761498621362,-1315.59353919243,2566.7719524826857,CRITICAL
20.553304210317993,64.38257335919587,1,-441.76602322601286,-84.16508518117742,17621.01607293646,-285.2957769451105,67.60453177502829,394.9142393906972,HEALTHY
65.32834063807657,93.44955071234489,0,7588.617160649791,-1927.016394262092,10485.802079681478,-2126.8837325235127,1470.9370185633782,59.24228391383263,CRITICAL
42.176147804601314,93.64260146602328,1,2802.4757993495105,1619.2217456494993,16303.548378286858,86.61447132082849,188.67903464993884,-176.48225733421592,WARNING
43.33676468841669,75.4617096110354,0,2752.9441749051566,296.0931927249721,17041.912452174118,-709.7359823817075,-1522.2027189491812,-992.3078085045288,WARNING
79.30248315125642,97.04199147258888,0,707.0659568478039,-6239.8089097023085,12712.521684149076,1190.3146477694568,4897.624611480454,-681.4415430641637,CRITICAL
20.269185178527376,45.05015131170454,0,-291.8112689155441,-1563.190808696657,17267.109777147158,-15.567439402560407,-36.09598271812513,638.6215135689722,HEALTHY
67.04497784568625,94.64640337328495,0,-9949.649133859866,12470.806864114615,11993.914930307414,2835.905897419987,-415.9643299324484,2196.4154528220256,CRITICAL
30.013248489372057,43.82141255338673,1,-244.8002418063011,-1127.5043377405957,15936.853537616087,-117.21142037412497,-16.051809241509165,218.65418109198598,HEALTHY
70.03481601576183,97.17934134611961,0,8107.9832826459215,6353.496215371701,11876.549675393768,1318.05725298516,2429.2705481273056,3711.596485149307,CRITICAL
56.386692480612375,90.69707424711576,0,2164.186627918424,2703.292394421341,14289.442347080545,-591.2920990920879,921.0752880113561,452.7207547930511,WARNING
26.77458493278257,74.26919786023589,0,-260.10244982649687,-1300.8429736229978,14906.719292867874,-335.4582536118301,39.255784507121156,-46.87374014449141,HEALTHY
65.72190673164341,91.55457150450913,1,-3221.7354784057734,-1384.9654876060072,9777.086347707349,383.81351114982414,3009.581167136519,647.4773294548966,CRITICAL
41.30399533412301,81.14865065095674,0,1999.7782042209667,-144.5687707647285,20494.24194463115,-943.4508826487564,474.61394082689486,467.7492781052966,WARNING
33.12513049615956,52.05824745642672,1,-410.56207492253924,145.2439500734544,17687.33686620339,22.06427262233763,15.178207704154959,124.53263878902933,HEALTHY
22.30119323583632,54.66204749516905,0,-1172.9838514653932,-1734.6639215329903,15918.930550936424,238.37370126173306,9.747830805753562,-444.8039644722571,HEALTHY
21.43535174087002,76.58337740886991,0,-570.4740239305688,-187.30417979489025,14411.278471802883,173.39733450692506,-199.78540226026306,-174.1258062187888,HEALTHY
25.576089423594954,40.05414502861873,0,591.0215565598763,1991.2526016435215,16739.792974927663,153.7034228299112,252.38677534630693,35.943690619689846,HEALTHY
25.89484173468289,73.16656882826058,0,-114.53984525261788,1237.8163119734618,14789.572341205632,-119.87500459075457,1.0487399436366331,9.39611875294841,HEALTHY
48.49122476413114,91.74654867649036,1,-1568.8500068601818,-5133.716371639722,17285.889386659586,50.60184298740865,389.07821930258916,-158.56923066798663,WARNING
44.34968707725956,81.68492748314263,1,3809.004534229117,-1657.3892245870034,19591.473985363933,85.4566139234787,-473.4578261079076,-80.48698227376649,WARNING
50.52350641339183,77.56032130406872,0,-2759.396406505791,648.9891167473847,18318.692933607053,588.7288938731334,402.07044579371325,-348.158673198184,WARNING
44.20370207243087,92.30831763576887,1,861.9414261320717,1187.530625879581,12499.226188556586,-644.2493228297262,-829.5973203412123,150.2812427882639,WARNING
30.584229571764396,60.862039356438686,0,-972.1523982026615,982.3194827554436,16286.169187900057,-221.5883341829991,-261.75566241538576,386.877705581706,HEALTHY
59.438282602513695,91.64956000063817,0,-5561.883370095595,3821.5860395738296,16127.644503666608,304.12942001914803,1170.6003717368976,-701.8350145634455,WARNING
74.31362781038452,95.55411115691733,1,1481.3214091936,-2995.743544833366,21105.160412410944,1180.9046015694491,2279.713208723406,-163.20384869411984,CRITICAL
72.19726935238032,85.83343709076426,0,-5756.225247269999,-2917.875228573458,13460.122530195877,-1455.5627650424774,2075.8742295911807,-296.8588373862008,CRITICAL
51.781202283319274,77.7060214446804,1,-2158.8053325367828,-4142.940900753919,17456.095744513204,-197.9650855784887,-110.40571154893058,564.1559871407953,WARNING
24.729355067459156,61.57965169501349,0,1230.1613134571462,836.0610511595236,13736.747120102491,145.90855332716282,-43.62077967478856,199.1715057436988,HEALTHY
31.929317735715262,45.41978075715379,0,75.57637267003781,1048.8641418753616,16354.783594146014,155.0230243178172,-209.10589713481062,-5.252158653970428,HEALTHY
68.62626602003566,92.4319019975854,1,-6644.935204253041,5384.58063263331,14673.918248915528,-3997.2221434360185,-1736.8011488369195,2349.378605312074,CRITICAL
77.96841089472485,94.33472878580262,0,3764.98786031488,-845.6310095033542,17669.28349580997,-3286.405542117727,117.96544311475103,-470.8577032775992,CRITICAL
82.8427025568581,94.93785865575556,0,4175.419316943792,10724.526313209915,22241.79821959107,1498.2950235844125,-672.3748188922852,384.3656500696798,CRITICAL
87.52183981342942,94.02680746610673,1,6734.721440710589,5411.983394112719,10413.537408406695,-44.38405422049635,4894.959993420109,-2931.5962237452695,CRITICAL
55.956286451061196,78.52853393204803,1,-700.3705790592593,1304.4550966357447,18731.610923173634,-615.644966600963,295.3623994886473,390.0293711074544,WARNING
55.150735735944586,88.04513035547089,0,2764.7145596934706,186.32118327773392,19574.807542473154,1210.4506002933508,1848.7502247864,43.56617467321645,WARNING
20.46762363667882,74.80786761968969,0,-974.7411862859307,-153.45634989981872,16898.801229895922,51.495905695494095,238.84633889434238,133.01796765513998,HEALTHY
49.37502120868828,84.98791198342131,1,-828.4402278755036,2494.5480360244255,17723.4375974426,-164.5206525062911,273.4011971692796,-383.7456958546966,WARNING
74.60823054409254,87.04334911248948,0,-4369.633956113049,2344.3282555386063,16593.173056668733,312.87173471862076,-4809.487593059617,31.829926101340888,CRITICAL
23.56316196311491,54.9300716651736,1,41.689037131941404,-232.3991065004716,16835.09529658298,-209.80138451409726,0.556474184315789,324.0859290208147,HEALTHY
71.65280290499808,90.93677172960841,0,-9554.236673169633,8652.805576252762,17489.250655906853,-1779.312967092282,2290.3761139631292,2325.5707836377414,CRITICAL
48.751954875075874,92.12190664472767,0,3176.526976838854,2721.420534985356,19767.326289638317,-318.299818360731,-717.2450260533674,570.7494531224773,WARNING
78.74270550922738,87.26678013841196,1,3384.546596288404,13034.631729352966,12116.698999312188,4871.463718883779,263.912294792492,-3934.51132760162,CRITICAL
71.71126742720939,95.39833872145441,1,-9546.565800712917,-10607.793634872107,14068.30384062033,43.63010111200672,-3735.9700434409833,-59.61842453285633,CRITICAL
30.459131285807853,70.10553176287344,0,361.44203694732533,338.34666692159095,14298.184141076712,-37.37391937007985,-47.78256839680573,286.03112731197564,HEALTHY
51.73178801108979,87.26078512944771,1,-1467.124333871844,-5649.753418646191,13276.66663272358,-217.99704454748158,33.7321283235315,54.57836956830898,WARNING
78.29642773392911,89.22278638699626,1,3954.0907163666448,1750.775011742681,17420.386866512294,-381.7248378291865,-418.69348128757224,-3495.7283044380365,CRITICAL
56.04836574357407,88.40805782032729,0,-5150.4963680417495,854.8040264732591,17891.250113120386,-410.48845377953825,-405.3431209374573,1580.4994101803532,WARNING
59.807955921839294,80.0523892120355,1,3941.132272085386,3436.1721835777594,17148.49229612749,627.2779223109602,-124.67681214927217,-1078.259714652658,WARNING
26.184195917474984,77.38919661953204,0,-654.2002848756773,1042.3604624928068,14557.071453522167,188.7133763801489,-28.24450713085014,268.0565140667983,HEALTHY
81.7176542313587,96.31552812406969,0,-16141.65378812121,-1633.333030636175,15038.447251363086,1338.5051282523239,-133.54163542149155,1438.3667618985744,CRITICAL
66.183596613736,86.56309656306777,1,5662.612708795932,5547.467195177103,17783.725489344273,-322.254973372002,4048.057072758514,-199.52055062853327,CRITICAL
29.558022152124206,66.37415688823131,0,-1509.4219134067625,-275.7272524673258,16260.21041218908,195.2296716169418,-6.023093420019919,51.84360366865201,HEALTHY
41.77272467786185,82.7298021211703,1,-6932.09685774117,5175.632712167988,15187.093702287913,1707.3162310241216,264.15505629467293,-141.87577254982207,WARNING
70.69732744274816,96.41896421837481,0,5092.832746388694,-386.5331974631321,8224.190717966356,806.3403332687795,844.0287188213878,-433.4300227728548,CRITICAL
31.114607913660024,70.68779412434287,0,1271.1382259809147,770.8631014640396,16876.686483800404,17.774601226348718,-289.1219944944165,-168.82738270354795,HEALTHY
22.20522432349668,68.43577321842166,0,-2619.1522050533395,-1290.5227272912905,17003.688921612113,-426.16759947117515,236.83620327344298,207.2314522277008,HEALTHY
56.91977754774463,81.26018438393787,1,26.219956684688608,-3500.14134290845,20483.89170457165,-352.3497166346312,373.5384973715331,-1018.1929836713072,WARNING
51.40698856017522,85.13566763164629,1,1716.9351762583876,-1604.5535098608534,14960.621441047157,414.1676347851917,-600.4132236235137,-269.3544165228495,WARNING
22.94723978604378,50.057206087498535,1,-442.0371483898755,1058.1300987323689,15867.266258549045,-257.70482725289116,-107.20361495279565,311.88113644382383,HEALTHY
42.20272057304098,82.57002521746276,0,-166.52839001376276,-3131.290480519181,20425.602947472238,-1883.4244716125836,84.87832506908597,369.92332427659676,WARNING
32.356510936986844,42.52561171709565,0,552.2999376795235,625.630933646001,15687.228181570425,116.40531341694538,52.08845266671119,-107.76837123854766,HEALTHY
21.00763099873565,56.20992352110755,1,-469.1477201949346,526.9374126317904,18004.53344516588,314.0989270522278,-200.75157831267413,102.05927791646465,HEALTHY
45.06757189715903,92.83100098825741,0,-147.59957897671663,-677.0281820069207,23386.192369023476,343.9555960628423,-866.34990828962,458.89717889528566,WARNING
67.8640510849012,94.34607093224422,0,11426.58799889204,-3530.1068956308845,12878.898980647587,2902.332569766181,3256.809579726847,-279.8936732824792,CRITICAL
21.891729835631157,63.26886109893907,1,-462.35252379332195,411.44832758859036,15012.633131817618,33.24682639762434,-195.07604703386747,187.20713089678148,HEALTHY
68.55872426637924,90.97653368664521,1,1196.9459917445472,3338.727016542855,17588.787483871354,-1896.2279369003875,-1984.6203232719745,-3082.50284807469,CRITICAL
81.35895501018055,98.16926020876012,1,-2292.3689241283105,-7438.106615208073,22149.350050092762,-141.9389396920926,-3518.24439022804,1014.7537655268428,CRITICAL
22.618847768707795,68.29705100647729,0,347.56161380355206,86.6976994143966,16739.66894856323,38.31547923881792,101.24819786118522,289.4611398783613,HEALTHY
86.12071562386454,95.96986265011657,1,10896.227198177943,7638.275905906418,18206.513860884337,182.1487677364556,874.5709791496904,-2283.192613754126,CRITICAL
25.618101782710436,78.02857225639664,0,473.86083374482297,1368.4501232657549,15467.173156181629,-24.82943605455368,-402.1925779489256,-98.56068499268564,HEALTHY
32.568625622777056,74.35057117397889,0,-212.8082614816047,-37.37385979861299,16016.771009669505,-367.23489288649955,318.9468014633832,-127.7723055888746,HEALTHY
55.10286100232283,91.07503948608164,0,-389.54388800303536,-719.8442374016428,16764.168588672783,-177.97458808590463,-1422.4985438099984,991.1126867798112,WARNING
40.71688304649121,88.21501109826596,0,4085.9232363298465,2222.505289057724,11249.426399591057,-293.9609676980896,167.2418069697393,41.70187768636119,WARNING
73.17180374065721,86.29029966357449,0,-8931.267834191709,-3644.4554860568123,12599.846045934546,4280.617559673123,3331.3581610277915,1461.870868203156,CRITICAL
50.19785151461743,92.26053896299247,0,-2665.6759284677532,-2048.225713941048,14976.997393655001,-102.50840510028492,151.69080136459752,894.0784656818626,WARNING
31.685080908860566,40.80210839136034,0,820.2323983059841,817.3062037383262,17338.085102156627,243.6960429743373,440.4027849319232,-71.21840972381104,HEALTHY
57.58063943752942,87.88860987029237,0,1096.0788149184164,723.8420916096219,18575.40528699611,435.1549033076492,65.96145311292895,303.1897591956371,WARNING
46.87644982517505,87.28062396897302,1,-1348.0086993344473,-760.7249067933783,15843.791437184525,-421.54375180232734,770.9337030560191,262.11933547937275,WARNING
80.8849889369778,95.71184202741613,1,1992.4776357554858,-2743.9482628661904,13308.467974035982,2365.297056991312,-318.7325719048801,4269.191102844488,CRITICAL
57.56754839391199,85.62830480816109,0,-1818.6642655841804,-3051.035527027712,15312.494407628225,748.0934860942325,-260.622847499339,1095.8182619713787,WARNING
20.417746663741337,72.2005952047228,1,-35.09646678459442,-853.932908460056,17674.46074137635,11.039848506017844,409.74165153977015,-325.09845403996655,HEALTHY
28.475487874639246,66.7873588985309,0,462.26246445420423,-1232.5760546154822,16180.819263379119,-154.46356854456695,190.05143877370853,254.30482953078774,HEALTHY
28.200192498331806,68.37188547670661,1,44.06256740659937,-1835.7687561770906,17772.66452010248,28.475582502093253,76.27056691605698,273.10529250525315,HEALTHY
86.84079507965679,91.15125623583411,0,-4005.4973823537002,2500.246917845828,19144.745749829017,-333.5879047590875,1038.033961281358,6.385696786105442,CRITICAL
55.26762519567125,83.58685566741549,1,-1761.6082453083297,1928.3614480318479,16013.19519286612,326.208958709805,885.9983445504123,554.0469509544312,WARNING
59.13320176848427,79.47816263082228,1,-2167.4789350990777,-2734.214655527973,18038.249828093154,1257.5019336532946,1043.1146300118185,-848.883873271894,WARNING
46.382790310683866,77.09410313724842,1,-807.8538453315919,2102.553260564583,16346.365322495998,90.4391498125198,394.225152775742,-444.37915226380693,WARNING
20.70558580122122,75.16440895571859,1,-275.9154704361769,-1705.5515908996056,17017.036726250528,13.853976235175026,-154.1574806080553,286.8816090069656,HEALTHY
26.14509303938779,79.12882674106233,0,-604.6620674952156,825.7263629471786,15612.530354778508,279.39231609156786,-152.03614624574675,7.701396499151827,HEALTHY
24.079245891929464,70.37593049671855,1,-480.2023741470187,714.086112952531,16557.916083833763,-33.85017681126132,25.812959648033768,-97.7962974858316,HEALTHY
43.32838875863205,80.8474516866051,0,1418.8935260285057,-2319.229657080146,16853.033428542072,669.2637442282556,-807.3683793734849,1221.5722899393475,WARNING
58.33957498037005,89.13530563723262,0,2831.3886427080133,3615.8877623595554,17237.909829377022,-161.04809138053596,19.837145638516674,792.2983845112659,WARNING
89.83993414279276,92.32844576748069,0,-6824.778418734778,-1396.72467070104,12772.379426865757,-2016.0090678198314,-2118.0841663715637,49.90196340028355,CRITICAL
83.47761340521768,94.21494311591096,0,3153.052324407067,3298.5005713369956,16987.53296445199,4479.443859998128,-2699.019350706799,2723.1827806540746,CRITICAL
49.10022064613914,77.99273443017853,1,1459.9394887846834,136.70568954564826,16196.44905063383,-845.1202660052005,-471.1962502873903,2192.0569173669214,WARNING
89.37856748465252,95.68940444666967,0,6905.007898106177,-518.3099061089916,16057.892353598785,-1834.056057481581,-3120.4839551074347,3709.3242677191697,CRITICAL
66.39337202959328,90.42174259311942,0,-7391.211324939662,-7665.628944336358,17226.17744032506,-12.784640119574236,-2471.844347018386,-712.9115731118039,CRITICAL
89.83540893189523,91.38469499458478,0,8182.9510416022595,37.53924582442542,10535.882087694536,4002.635913732319,2635.553395451849,-359.0335724630765,CRITICAL
31.48787965827113,67.66622607466167,1,-401.60771065712936,-154.5389942298694,18310.20756273258,-209.56441082553843,-162.900842152322,276.86488363084993,HEALTHY
82.25723824833958,85.00072185841468,1,-2053.793573550881,-5823.1422083178895,15222.893744869743,1358.170049581295,-245.80490876280228,-1316.9362446375264,CRITICAL
87.01930271816722,88.26324145021538,0,-4134.736292775731,-3789.659964759505,5767.865375180176,-1596.923832563683,1934.763681994914,2139.5112024316913,CRITICAL
77.87346698968275,85.63027886899539,1,6665.247629238489,-609.5469603156615,17975.061719702688,-1407.268738109589,-2141.396565568451,-3153.362543705053,CRITICAL
29.539320607455927,55.52662824507982,1,1122.8639537338076,517.5437758122711,16232.586769889716,83.2922889512282,60.208895254890315,349.00328599755767,HEALTHY
43.83189899368846,93.86759437989502,1,-4059.9727268756815,2490.081245354204,13396.733459188652,180.70001673708168,342.16783715904614,262.6232804998693,WARNING
73.58205314718026,87.98231036276131,1,-9053.055546357133,1524.2755881312335,18841.86213093125,-1961.375877105585,1801.9010743562226,-2700.9579115711995,CRITICAL
21.264058387711483,72.47446799330336,1,781.8212109654562,660.0954605303791,16454.486092258918,90.21297632751131,94.1580887933941,-72.72391142659431,HEALTHY
89.15776772231031,91.8189416043208,1,-5909.582130976171,2132.567841295494,9384.467520813061,3751.038889632044,-838.408122032828,-3309.788206851757,CRITICAL
22.742566698032256,73.02843806242667,1,1381.783897451939,1873.020623575457,14340.173705077883,186.45801701325584,-138.59683946629983,160.14960426465984,HEALTHY
58.53881325564079,81.67663047404145,1,-1602.8820808949831,-96.33982015154406,14496.462785971362,934.3228008341104,489.17895973534496,-355.1397175891377,WARNING
29.54437030968872,70.44486148172632,0,206.24754573786294,-1205.141792204277,16980.64383353371,153.90629381019977,-71.06237722358674,122.04887512094918,HEALTHY
69.03140868812463,97.31032012321928,1,813.6193703310445,5630.829475761445,23341.4132615782,2124.087030637712,-4690.8911913154625,-2844.9228146434743,CRITICAL
50.32466195871658,92.46318574765652,1,-3953.933413115105,827.8256953616874,19663.535457985316,-968.8395578678849,-731.8452521221956,180.8439343227752,WARNING
85.1526716186314,85.89546733419871,1,-4859.50114073509,5093.242981710285,18599.593207937138,-2371.1920155489183,-1601.6818323255782,3129.1624821148293,CRITICAL
47.24919697229121,79.95472328070231,1,-2774.0089519409066,-1206.994606410466,15370.991497832081,1104.7137392855177,-222.0329084041656,-371.224876404895,WARNING
48.635634717020615,90.2262754907849,1,-5483.687763462486,-878.4736697869791,18443.23059710692,-12.248141958574019,-232.22345446995683,-9.302263510852196,WARNING
27.656487335063485,65.06370044372841,0,885.458958900338,789.1340251466785,16463.000083611063,215.90872416232833,285.18731629582305,261.6448155651081,HEALTHY
21.87305115358884,61.017805054487184,1,1267.6515111879737,288.7280030098363,15226.883381286729,-266.6256709555613,-310.30244981178583,132.41036695169467,HEALTHY
46.98948991916338,86.906215036869,1,-103.28525729431232,3803.811414400204,15885.27197135902,240.3547309076489,-99.12142570647639,-646.6584819943619,WARNING
42.56270080501048,85.24207710927598,0,-692.6874404656614,-177.90138485487313,18314.530427761565,371.12718678236723,-427.11596934142926,414.9839194431521,WARNING
28.025550980673657,59.06477936505648,0,-662.6237589458467,570.5986685931593,15620.740843457483,-360.9764201329038,-325.50848757663255,9.616989332276399,HEALTHY
70.56107389485257,87.38223844260352,1,-7329.117261418094,-5931.242224087265,11268.603887179755,-2584.7032179342364,-2663.6447327562464,-1660.1283307828178,CRITICAL
71.51692817086216,90.89832638206354,1,-6244.452146369097,-322.08998251930706,23016.008137185556,3336.6113273166707,-251.23992135226908,-628.394555913714,CRITICAL
30.31653809548602,50.938980614999195,1,-357.10719224891875,-244.68450883413132,16111.3219684199,48.60237140194017,15.758603641569174,33.47249070234061,HEALTHY
81.62996540534662,96.0066613438573,0,2804.19162891084,3687.8844942581923,16137.576820097951,4254.998554205137,-1683.0017430786215,-634.2225615021016,CRITICAL
75.54710249936844,86.31015123780514,0,785.4359409322029,12898.902124815511,17114.33194564158,-151.72618598673427,279.8947826476983,-660.4990446588017,CRITICAL
41.95219996459415,79.80891127351819,1,1086.8679727366364,2617.7682992122027,17353.670224208792,-54.195655477072926,340.82121087772,-25.493736386265027,WARNING
20.237803180603503,43.679380426832,0,-1296.833847167973,-657.2117082110901,15618.254681293743,-18.88365242720953,-27.105253795774175,154.46291688814117,HEALTHY
85.08282280518051,94.21688388960044,1,-5803.158797620408,1025.7649392908086,14113.43574559077,-850.1728725395706,-1537.6541307845407,600.571632834852,CRITICAL
57.75803676656641,83.08389759217762,0,-45.33560877020442,733.2110725121302,17595.83661992231,-211.25894537737696,1771.2587680491827,-159.52479113608385,WARNING
82.88650666686868,92.9410594503509,0,-9016.810267830419,-1200.8073253688258,8892.509865401413,413.63272358280767,-1358.8391218857814,581.1606957490748,CRITICAL
48.78086520938906,77.54886111140246,1,-2804.622110870343,1742.4927573078721,17468.483512547522,-1055.4575112124335,1054.363264777821,237.9334507660045,WARNING
30.30784994703015,72.59174670094635,0,-1484.056664924335,-208.4682105404079,17590.608154863916,-305.43357131792953,-211.01787363533901,25.253547246813635,HEALTHY
55.49120499829174,83.34682946532652,1,670.4714099101919,-2825.3131101331064,13247.767368656881,293.5723290702998,450.86928597849607,-342.2513467824536,WARNING
32.68480283416014,50.38413134833914,1,-457.84838618248926,-159.36223214590655,16013.417237599217,-269.6094223880334,-142.93613539808635,104.2559810027629,HEALTHY
83.93876987705725,96.16950710902819,1,-2763.918828166225,-17444.6212741238,9695.18507951712,1359.5003848858055,3074.5665947239013,-2809.305834560099,CRITICAL
56.919362893092824,79.1281773538379,0,1356.2605741612886,3146.9030994001705,17591.324862943966,442.416256531915,331.1316909866008,70.92902380232782,WARNING
83.91201449941407,93.76745895968001,0,7404.421934891231,-3274.0453773790337,23119.53268142511,-353.1520628791421,1159.8686633041325,2583.066827595858,CRITICAL
20.498046631870498,43.14313988620083,1,632.1161012683779,-978.7666478612534,16735.891067906436,26.556139652831046,340.33924170669223,276.629000174455,HEALTHY
27.954531998737373,41.67804893726545,1,-781.0204292648907,-370.50630168951903,15373.405913293393,-13.436716132383378,166.3256615328937,-5.534133518852277,HEALTHY
29.542660470623492,71.42606472320928,0,850.093989316809,875.7158624009804,16740.16687722484,9.734967665365172,102.34753381580109,-171.06610287785173,HEALTHY
66.78060071839305,91.77510592112758,1,5419.005551968658,-12071.888194234218,5996.05252674211,-997.9574861117708,573.7276856387007,2650.5272062547765,CRITICAL
44.888788919433864,87.3345987075081,0,3438.8797834080174,-1412.5856511662334,11401.65921079956,-495.5715594423986,1132.8649338239188,-222.39261174676514,WARNING
41.22359761836813,82.48838353804594,1,4453.499291502144,1416.5195820877225,17978.745790649813,609.0421518352389,1196.795620072863,846.9257720133729,WARNING
28.23902740022664,69.93443333714478,0,-157.84202104008324,-536.0817951208536,19275.702989956768,55.67163328907255,-167.89631825455797,264.43342924422524,HEALTHY
46.436932704026404,79.92955819153472,1,1093.730039677744,3240.639273054324,13855.300497458575,761.2190170764844,1173.6185521561665,45.02540469561791,WARNING
52.11543673244748,77.56049525722153,0,764.5914573173394,6372.675514218768,17785.413777822912,-653.5347190842255,-1178.295528209162,265.40482152604204,WARNING
27.03561121277231,72.03754886165721,1,333.012047116258,-2344.970383081866,15068.832257571808,-76.0197127020645,-144.28326994917734,-29.561300709423545,HEALTHY
51.07680584457472,82.65585662159819,0,3713.693423181374,-5118.592964426875,15832.178107604084,-932.8749087176426,-1156.5698741474428,676.8696517413716,WARNING
83.11552596646827,92.37590183747454,0,-3152.4058484264924,-2070.6908455773323,11633.481056976583,679.1418536054356,389.6197959552488,81.90581935243692,CRITICAL
31.308021240648696,63.115644507763534,0,-649.0537204283726,-346.6533614301105,17490.85018218982,-22.81183447447129,167.91870913344107,-193.76632630935057,HEALTHY
66.31723590833472,98.81055992184356,1,9366.137582687754,4988.185526855937,13106.677507076909,-1037.6740856433764,201.24422167088423,1028.2819815214455,CRITICAL
22.37955779974398,52.50730660111169,1,-197.14738095841287,-1506.0888450601758,17454.579467578278,-17.008867807604673,15.928537978779353,320.0990131622115,HEALTHY
25.40350878200642,50.81573145538102,0,207.64933540409174,1059.9405560591506,14504.439371989978,-237.81457316076947,36.96265415283707,92.08394588800955,HEALTHY
44.608439436286744,89.8747362990489,0,-3510.390599043122,2463.070932182594,12989.090807423912,124.1922419251149,220.3106289016702,-901.0163043752898,WARNING
55.697366239877766,94.5254320087408,1,4183.689622998977,-2754.899759869511,17531.34201690466,-311.8023576451879,-291.4929562331424,-821.3999074932381,WARNING
26.301780917715874,76.21439497111481,0,1615.3756894694418,-322.3204692113399,17601.1585208255,304.26321038449026,199.66217962959206,-86.32406254360968,HEALTHY
75.16904267096824,87.65896448163855,0,-4609.270146855822,9861.229196454064,17211.34093347025,-593.5688754823672,-604.7105026252883,3.957636015274211,CRITICAL
51.78075783230634,88.71356760332357,0,-1928.3938390397295,581.2750841436467,12774.953606832252,544.8278669018558,26.326612412616623,-240.942155316372,WARNING
45.08504805229088,80.179969090562,1,-890.3209070995534,2719.7606857645555,17686.577891535497,113.99883724880053,-800.1931008373806,83.88759059173091,WARNING
72.76000754832909,92.06691827495432,0,12582.763274238163,1815.6811556775244,11385.201197917919,1633.2071407154253,-2356.692249613691,-2192.024095742107,CRITICAL
69.8756746255469,96.90005832891934,1,5922.506050498805,-4403.965673271858,14898.066376975718,2206.1844671177537,-897.0050681261081,341.1756263065472,CRITICAL
33.135276913791586,50.85723457104213,0,1393.181257934906,839.3491142316022,17256.824351005635,-193.23134467408343,-15.877684881140574,-60.09318974414074,HEALTHY
67.67499928708999,91.5720635705435,1,13188.287101516667,-6509.870131360324,891.6154714226533,3389.1907740679158,982.6782102272934,-1574.7497711648068,CRITICAL
85.26031532852467,85.42706838815232,1,-390.0829366683377,3599.6496536450995,11403.015266288028,3932.068564929213,494.9918078360546,-835.0946145319709,CRITICAL
54.50621151081401,84.97248926532566,1,1123.6399863600773,-1999.1306312616675,14174.8281282909,201.48192991543954,345.6599982138039,255.40759999249744,WARNING
50.42192359160251,94.5386283359463,1,1407.276650712713,-268.6122044856235,16191.836482490846,919.4312129276657,-487.5227628506819,1304.9396681211447,WARNING
80.53989427361745,95.9381138384472,0,-3309.164400609778,317.63680940880664,24366.710029373902,-297.765592041766,-176.30973774078157,3555.289637638859,CRITICAL
29.910910896637272,78.02425486319491,0,-426.9059567438021,553.3824463016972,15734.672274304137,-265.3389060155555,67.94080626333351,-300.30610466423985,HEALTHY
28.644325402502197,64.26860185531423,1,-329.27370705581797,-470.2814467294437,15981.548891373162,-85.82760701351813,-94.68523854009918,190.37660360571078,HEALTHY
28.238399970591807,68.5838369080025,1,183.85551440955837,577.8971350988347,18518.641248007407,45.369764396157294,331.09232507578423,-92.58508441272964,HEALTHY
29.204568544840757,75.91741173774948,1,-1103.637871249398,135.63200877595335,17394.70216458611,149.80878890520785,92.40266198585697,-34.04537831834875,HEALTHY
56.691439137418946,88.18959356573572,0,2081.5410419536865,5247.3689307729455,16729.090887997347,951.7340041882111,-878.1927265396862,-503.1349602677783,WARNING
82.36562510955235,93.81563544927796,0,1553.018436410552,5703.747271020995,7411.90224281767,-505.3144314195094,868.534538287506,512.3260393056491,CRITICAL
54.479997482391255,86.01978488992447,0,-1542.3311757352972,-64.29768045139181,13358.345522882653,999.763950132284,-1205.776419815661,-152.71842771558082,WARNING
48.38116797326191,88.64952758098636,1,7.994976538220987,-1312.1486508110859,14009.010741200762,-386.9255509464254,-540.5042745983598,457.3578686571198,WARNING
34.57926267889708,41.502092802401826,0,-604.9067639281748,497.7883094177774,16921.41200282038,128.4602470022352,-338.8511791990156,201.32130820652557,HEALTHY
71.13002787161787,86.21453855765246,1,-7276.290454793105,5405.186643293966,15661.342824152942,715.6421250397959,-626.7372625701475,1172.857003318032,CRITICAL
42.53053828098152,75.97683246641488,1,-263.8133201633227,-1000.7011975242222,19004.840235701846,-279.25078649977354,-319.6233442925381,628.8591779334346,WARNING
32.89519377620499,78.37888731821647,1,-350.7104446234962,1049.9941674505683,16722.89159821852,-66.82728969196855,-268.92980549388506,42.32007611770137,HEALTHY
23.51841940002243,78.53387331281596,0,870.0677306887538,495.6818879726045,16534.418905143575,72.99220049324502,480.683117047655,-11.523759406717078,HEALTHY
80.2456678860615,93.69751350505544,0,-1330.8377444366902,-2911.8673227127115,15579.740728441666,-4806.691091810609,728.6515097997478,-3267.8808663580303,CRITICAL
56.950012407526835,81.66078470726788,0,98.65145116026146,5519.996633327421,13142.1682564499,-22.646927569485886,-533.9988095375884,-346.3800237937376,WARNING
29.79119161777812,49.52731124186906,1,1249.8053194112154,420.3245871845206,16108.190434398008,-211.50625028666846,-120.68725098055255,-51.42445424944368,HEALTHY
57.774715787732504,84.28740640364082,0,322.9187657393312,-958.3441355014688,13927.277681179394,-415.41102741640464,571.8890286578197,1281.9641735454697,WARNING
52.60869058001468,89.32445650023234,1,2926.696971766251,-2627.6048757167346,14651.64192463233,403.5927843562962,656.8879967113043,854.3334737567521,WARNING
66.7639488816356,90.21785981710136,0,-13064.370765946558,3804.262399323355,19063.036579489748,-1310.5630681388684,-300.4730149890954,-736.254971110634,CRITICAL
27.802548384661268,45.71503845357647,0,-695.4692313216132,1557.098540624207,16940.2175789975,162.44795618784394,-131.38212009949478,-307.6739997936206,HEALTHY
34.90367259228828,46.995357447794504,1,-636.5053626495294,56.92642087077602,15706.809762346706,83.11014829484617,-55.20452971111388,53.743705460933676,HEALTHY
49.44561928657602,86.07672165004442,0,-3101.3395730093416,-208.97967521218845,13664.392420521091,-495.51122188573095,-35.4368693158128,738.6480254339616,WARNING
29.401300228134968,45.84386262165281,1,818.8037757372631,157.95760278095395,18114.851545869973,-166.99007365753553,-42.102267319948254,-26.635628053536408,HEALTHY
51.069798610008675,76.76911481371073,1,1587.0128302955347,707.4670241140012,14003.226944560885,194.38643030432036,-68.88927882856196,-561.4344723808339,WARNING
68.73765774684493,91.26123092989667,0,-3512.5179650231867,11336.184701655708,12046.727627504904,-238.05654366061137,727.8532881762537,1011.4388962124063,CRITICAL
31.22310677592691,76.23894654037042,1,-763.3491867151124,5.685698039677293,17234.186553848376,124.2508907910385,194.8524526172904,-249.91118054789604,HEALTHY
67.30927098189741,85.9113059438203,0,529.7138900288722,742.5765433992227,17433.536466463895,1707.860356613681,3130.088429094789,-1227.6901417419153,CRITICAL
33.54951691083139,66.89115317896321,1,501.1712644886682,11.095220319579393,15934.892531170684,40.445174918392965,115.44967447510597,-132.1788673972366,HEALTHY
82.54187292461916,85.2478409467979,0,-6616.278084944052,-2107.9701652217086,13040.739769108568,2321.4826720178853,-535.020513533074,1064.3231304896335,CRITICAL
52.15442808523938,94.63007378606439,1,-4095.739785505983,-4124.7884800693855,14240.870248872649,-311.50243777641435,-17.80927083521748,483.0936437057074,WARNING
25.228605008629557,46.3714978097122,1,1005.142573278018,-252.3800434644497,16724.60001909986,287.0363098380103,112.88059757865324,71.11012593487055,HEALTHY
21.92894728940829,62.95402391900107,0,232.78674294016363,-756.7639770159263,14194.078295021447,238.91844410274615,191.67716396840848,10.33219537021596,HEALTHY
42.432363136392986,76.30091915474281,1,-2291.1655344808187,151.66249474182973,17647.471197738883,-75.80445053753078,-218.50585213505423,-149.5558308030469,WARNING
20.76895188763997,56.075050849469584,1,1343.4902081840628,-1812.334583770722,18642.827121908187,-135.66134650303925,420.4873353963676,-51.241914427996896,HEALTHY
26.313158746148094,69.08417796234028,1,1046.2572134371721,1602.2113887316757,15686.716319530186,48.591270426270256,-48.6156112158416,172.77433191040132,HEALTHY
75.14204751255326,91.52795637452792,1,7425.0042152275555,-2274.3359740728815,14617.31030528183,284.30994252592836,-121.6059636819982,1535.3427396822335,CRITICAL
56.9843828938821,84.60533851331255,0,1249.1957681149834,1643.9731488098575,16673.94539570674,1150.7277076411856,145.01222456866623,643.1276320256683,WARNING
55.16849451415084,79.11209838078267,0,-837.8578469454812,-338.33558480777424,13310.26210572978,-288.3462640701672,1268.0890412357392,405.3534106128521,WARNING
20.71746230591158,41.520873929498194,0,-365.3215513121087,184.6803058649084,15036.873710470303,-194.32280770213032,240.08278158888507,-131.37885579427916,HEALTHY
51.200079784578364,84.00780152811862,1,2756.7418157252164,2151.762931486085,15845.302042448711,1202.5951389726577,129.72269956301167,-1022.0875525971752,WARNING
72.80182545738556,96.9004001835502,1,-1146.523946512237,-5376.01621125317,23695.716068988953,3407.4012767675786,-805.7368889361176,258.69894333897577,CRITICAL
70.54136687342792,87.15386347424723,0,-1925.5034503875725,-3473.0419204924747,5993.0281619028765,2743.2659630568032,-2210.4392947851134,705.2271420832827,CRITICAL
43.49615787550372,87.52218147438785,0,3978.0382272057336,1356.9366847814051,16734.73356425136,-459.60387434284513,635.3282677327378,-576.9557075572171,WARNING
85.27958548709465,94.81980434860499,1,3027.9206432046717,1185.5722935599954,22689.03127262025,-558.2788762246367,-665.1582137711817,2356.136480562532,CRITICAL
80.72207396419216,94.63279084052195,0,-3214.9239343154527,1551.9361798989084,15606.898461621999,6431.89448622333,976.7991247248905,-2282.9135984152776,CRITICAL
65.54752689815919,88.35161424534024,1,4772.596240844598,175.04656060857567,18002.703576399617,23.18771865074288,-2051.8866793988564,49.2947564210859,CRITICAL
42.72455556636898,78.62161404615883,0,3099.839764086903,1987.7376743226175,14295.9510233421,-64.64830832950074,332.7593036975091,176.4843511569144,WARNING
40.71421898056286,82.30326711356058,1,931.2016579868769,-1273.1508325717964,19287.365831770887,298.79313915734093,318.24477514322314,69.22577136619515,WARNING
31.73727386845907,49.1136967017244,0,-1252.5890123654954,-502.4624869106166,16665.17956226945,-185.12416995487328,128.3374874309299,244.92541744526636,HEALTHY
40.507429760846314,90.00300562597036,0,-1500.5643252764273,1695.6842509743572,18124.14809294512,-1170.471939649516,306.93022989759726,-51.77469178048435,WARNING
23.873402198899743,49.7386817626704,1,953.0015927659814,-924.2924588558654,16608.35555774313,-115.8146201838806,-13.099416167945204,-320.6691819317487,HEALTHY
81.4626611798099,86.73900265986259,1,-8048.1491071453,-12551.6500354619,18154.439033083472,1956.073610171888,32.20449196390369,-808.6292870528338,CRITICAL
82.87307816052811,85.79113794859806,0,-794.6683181974347,6027.587202746894,17761.52438185421,-476.488603796908,-238.31853990246807,-117.6528183361006,CRITICAL
80.6805677215457,93.7025813625291,1,-3346.6521751125783,-6809.844989395545,11987.121033377805,1318.91704887871,3296.8252153889734,1510.9234277419264,CRITICAL
86.30521963277216,90.84621122010492,0,6089.553629925654,904.1446515782994,16825.20232629377,2028.6409320880737,-667.8728841042695,-1124.2489391986196,CRITICAL
28.636787941616173,74.14618195764447,0,-1395.7892021924852,591.3492417584004,15660.009668257391,-39.078070235404795,-90.38987438237554,-157.86770114393488,HEALTHY
42.65172192809918,93.40366806026672,1,2473.998323976177,-1398.0644948880272,19073.835306751997,102.03104752936008,358.0888699654034,255.80228997729637,WARNING
41.8781992966206,88.18750374838986,0,674.169472468201,-325.90320244837164,18330.568411605393,-785.5784851550316,36.87771801705738,-1101.4479868101014,WARNING
65.09039654428919,86.64606170818675,1,-5372.001451060212,-4198.003609709775,17217.365024161863,436.48359072951,-457.6031029021,-614.7202912991228,CRITICAL
20.101948228791677,70.55426000800855,0,-1320.9253060633012,-2123.6830173248295,16673.653698209757,9.174288976912989,155.80597352602587,-222.0851498504885,HEALTHY
44.21078293675686,81.77482525906964,1,212.1636459027604,1714.0484355462074,17166.164128727276,46.01636203310116,-187.85815939616654,56.90399752973677,WARNING
46.54183012003277,84.76120312539325,0,5914.1167369473405,607.8744290340371,17770.18210963667,474.3907658462305,-1123.1200860962163,-287.78552087969945,WARNING
82.93772381039949,91.76201920346404,1,7773.045492704753,4426.720537739501,25785.87308421996,6273.372096644546,2862.906041575711,1851.3338958157226,CRITICAL
45.07761692248064,77.78118251587858,1,-768.1155641543287,3422.7364569071283,16137.197763860817,578.4956269342364,-157.74603953093987,1166.6642814592665,WARNING
21.416936387016303,79.55502848550174,0,-447.09645128919465,-564.6921157579213,18018.666552519873,199.40394231635403,-138.14158518578404,33.03906819049138,HEALTHY
32.77137436617644,48.34042057429343,0,886.4481970162597,-2293.9763400335855,17860.146110720067,216.71698014845978,354.84250082760417,52.05311167354535,HEALTHY
40.686867687064364,88.0646253761369,1,3338.6847446266365,-1938.447574181516,14644.475973434586,-111.53000425654568,1249.1912221975103,-115.79683652732538,WARNING
34.779049821513524,49.90024514279216,1,753.3844599846924,133.78906286510542,16961.193317187728,-245.80358731063714,109.8859014871527,-132.00562978214862,HEALTHY
27.24276911615157,48.49142566674365,1,-164.33520588539142,212.09335307417552,15390.641300418049,-203.17576539799566,-277.7085107662422,-320.054220900742,HEALTHY
25.89755651846396,55.51057314118999,1,-637.9182339558696,-876.629201889481,17571.724512120214,-255.2421794014107,-192.6130226823691,-139.64220867801592,HEALTHY
27.67853181904436,52.78472502032285,0,2352.5850789570027,-1574.329254232913,15013.102641499865,138.53440685054622,236.53601101319546,161.79053227171443,HEALTHY
44.48694372743529,93.9059248987477,1,-889.5903108506529,2290.1877452422495,14541.60185797075,-6.342234632363221,648.1574088528502,-822.8407144173261,WARNING
23.23731541245265,64.91561903276,1,-391.4018120818318,438.02259742167513,18047.76978944825,-147.84728629102145,-21.4388950322252,-97.24345715062476,HEALTHY
74.8945986797854,92.19033351400365,1,10279.793806407337,133.88026695072864,21127.90689616163,-1107.440413916483,-594.6322134181843,1561.338951189683,CRITICAL
33.736823591811905,54.39176374181198,1,195.4817315532908,-98.84520123930605,16819.975389500047,-506.44921704393704,136.41389801252626,25.235580732393437,HEALTHY
29.42753255354306,48.60622486496222,0,595.4908976392574,-589.8947564628909,16251.830644355628,14.455793076857779,-300.0443722893872,-155.76740856408696,HEALTHY
74.46307608658132,98.95443911089643,1,3264.397577269283,-8903.25070366008,7522.943262493741,617.1495188379473,2571.636953925592,892.0909121126737,CRITICAL
72.37126792268431,94.78764660401026,1,-1388.8864174265666,405.6017773946952,12534.37029366031,3942.565079028535,1077.2531663264583,-1608.6245288977707,CRITICAL
50.309698187745845,77.6676898708568,1,2298.606041062601,2765.231307133435,17187.646964727315,-553.66771637689,-1066.0681303695137,-1366.2435385166261,WARNING
41.52786633590611,90.5693667983037,1,-2226.5085056785556,-814.8949818212775,16239.244371530382,-812.0964703385637,570.5844798169678,1063.6153741982105,WARNING
44.68777240434573,77.07875525177852,0,1857.2258238529348,-2325.7789278641626,20528.351375067396,-45.7996660955312,-608.590802086827,22.511033695627106,WARNING
67.15432499117453,90.41555510213561,1,-423.11215798990344,1109.7715625129724,9752.595589722543,1717.7213940293261,423.80067083513745,1048.9530193014693,CRITICAL
20.275574818071565,50.82087120687386,1,-594.2108723816666,-616.1434580489434,15343.801289044526,139.76313405609525,289.7640216675431,-63.01638558178468,HEALTHY
85.82773543549091,97.36460363228811,1,652.291612316782,3544.6616867273774,18128.008037331423,-996.5966250144636,-390.875932561622,1985.8763749651066,CRITICAL
77.31279145834084,93.03536755964403,0,5027.0805331004285,-3389.8347862254873,19679.88304370401,-1339.9851005513096,-1660.7657653376864,-2064.6925277427267,CRITICAL
33.93289324768348,53.27886018943382,1,78.92781907222076,-303.6385369878578,16817.11596387311,77.6932830096582,305.8733616696289,-19.057069429000897,HEALTHY
20.831238326633667,53.24585956656599,1,-2640.897679343706,-323.43786754460393,16494.389639107696,101.48418556665774,-183.18494545248544,226.85895877764247,HEALTHY
53.567201795658036,80.72372493368267,0,2631.3682768368717,-4607.34226561919,17002.17863027189,620.6056449303547,-1015.8584092308108,-646.9878818165502,WARNING
29.361523162727565,61.59124247658532,0,-1580.251936743527,16.053418643930875,16144.82133396983,164.62099514900137,178.48216396304227,19.124089177878496,HEALTHY
50.29964807391612,81.4365501633816,0,2226.371979280525,2262.117592967759,21291.09238776037,-484.02274385189344,-450.54392584974465,-17.72970546211911,WARNING
82.65378006340715,97.72622992629341,0,-13705.255855717605,2209.9619919278666,4684.7125459446,900.2316818303967,5174.396485677535,2720.6923101011957,CRITICAL
33.32963170754776,59.35399880132893,1,-926.4670182411171,-960.1287386482825,16528.907969330903,56.192664233019855,371.5857520116498,194.1609705074406,HEALTHY
48.53773391418332,82.73540469763364,1,127.62876685837011,1741.415858643855,15344.459475303365,649.5081358326496,-801.0472458418094,48.67542616087321,WARNING
53.81702350932098,79.41400799311134,1,2186.849053950643,-770.3690736328437,11901.116243864624,-33.82377511404103,-1075.9182007895504,1528.9614212284312,WARNING
45.13065235221957,86.27435359095236,1,14.462902521798966,1158.1395709492774,13294.55395842376,-106.85570081338298,-353.8713484688269,666.3530816311977,WARNING
23.301669888571297,54.02082137144647,1,1546.090168234707,811.1432591099114,14931.204104111654,-279.4315996436155,-26.09197380787301,-79.06109548794927,HEALTHY
25.52520820691527,57.293849056133894,0,-1699.9597206830213,-259.39175593725616,17319.39205379813,-40.81865940311738,89.10776930580103,222.23987133065606,HEALTHY
43.738190696541544,85.84070771012236,0,-147.94777702611097,-1938.8046234462781,15713.312436983793,-169.83827385988116,-93.1179731749565,-737.8339467217754,WARNING
32.8159926998852,69.95996069619828,1,302.6979943767323,202.67836338519052,18283.93966662289,-402.13878191641356,-517.8127869376999,412.4425048076513,HEALTHY
67.91019216162049,91.85348606371736,0,4296.276828676098,-7779.589064456158,17169.205149971705,-1529.8901506711911,1099.9714181975862,1317.7275911771537,CRITICAL
59.83596140091532,80.74599600073529,1,-511.19082356125216,-226.46755347028414,18530.832837898335,596.6858871119822,809.6326237405094,962.3441022446665,WARNING
76.9048365889139,98.80875578633629,0,-5316.236330315445,-134.30793898086043,20295.049431882133,925.825558986226,-1350.078022838936,2394.9890331287265,CRITICAL
29.426104364614847,57.54596073743938,0,276.6007655111806,1195.4806508254787,15787.37094138827,419.5878678264863,-105.12618679707688,6.481402668027243,HEALTHY
69.52327036855223,95.01552635623965,0,1580.8950637617615,5275.974159289627,-1912.985755528838,-1548.1008600476123,302.5357302060862,3406.1535732528932,CRITICAL
43.077259389076744,94.52831248547658,1,-624.4524629565465,1473.7350234191713,16415.89307263846,659.6105058916859,467.2599647780273,-215.8836045371226,WARNING
47.44847392350014,90.7982340044561,0,3539.84078782236,-1790.357213691412,16424.96729619909,-836.0037291489389,354.17789436045103,92.03954796915647,WARNING
47.58597585344375,90.43329876545404,1,-2111.802426919769,-435.9492685097516,14150.876256204006,-23.926930181342513,-251.7891851813307,-358.80607262273213,WARNING
27.155723377690318,73.39597713457566,1,963.9069340758625,-20.098751769651646,15612.799700450709,-354.79392322242586,-137.209951407036,-123.44244932959232,HEALTHY
71.18905167216914,86.38534687358893,0,3199.288521864565,-4164.636487801972,13675.81496046927,741.2475322509529,-42.74352053190766,1512.5050586425816,CRITICAL
76.72338932354594,95.2695749779466,0,3195.7868062623793,-35.413453923303635,16793.699655631834,-54.270465238285496,-1796.2024095994846,3176.6759144547013,CRITICAL
51.913869916271366,76.87178264144845,0,1368.8163260890503,1813.9754387058038,19983.885103571578,752.938755812362,396.73226678236045,748.0495537130594,WARNING
51.56189814919418,80.14427357503257,1,-2569.0078579334604,-1325.829751868088,15541.098621429783,-92.19339215422833,73.80373429580344,409.6755778795871,WARNING
32.57823822354242,54.247425884703766,1,-787.7837519082389,-620.847598251116,16215.85618141521,-94.41811553942544,-395.85996207515757,149.58205122350677,HEALTHY
86.50124699240543,86.80547142670345,1,1295.574906113849,1002.028645365424,16961.664246397177,-4202.630897988179,-1442.0880132390148,1711.716764484657,CRITICAL
81.6873286943369,85.71582975550373,0,3833.53813424731,1304.5238546177748,26849.867514539637,-52.85104273412562,-513.7799678497776,-799.6346621492005,CRITICAL
70.80015503204518,90.9857682800673,1,1053.766276093598,-9378.231684405082,11615.157619497222,-644.8413738059012,-301.3951400345608,-1000.8828049100771,CRITICAL
31.03930340772767,52.049251791756326,1,-941.4745524055496,-2089.5702371698126,17700.855659619898,-45.28334626905235,9.932066763316321,199.34027484790437,HEALTHY
54.08171337284671,80.20231966030798,1,4587.85797930875,-1265.6831679280422,16807.17089478893,-526.8241021861436,1190.1349354180702,577.379839313538,WARNING
54.389749407152244,92.93869241017832,1,826.0027775144627,-93.52662043465642,13848.504824549882,-556.8588855864061,-925.9577265674343,1049.0846221297877,WARNING
51.7533810294652,81.35878659413646,1,1302.167014693449,-1017.9329848455395,14268.07777912365,-753.4801171279788,-355.1953996141292,620.9676919500304,WARNING
55.23610509909905,81.58191760629519,1,-3586.039397119899,1049.2884718283112,16820.9620645163,-422.71918075840637,1277.8759266167915,-867.5012271130662,WARNING
71.53627121918367,93.47743500718707,0,5671.560467364824,927.8397517580842,12049.998256898774,882.1082256312894,973.9694153177267,1347.8887807006197,CRITICAL
88.2708103954372,98.44901437082467,0,-13052.285457455584,7839.74668211855,13675.48753728613,-1617.3362939710369,1499.9456933409324,-1259.9072833879268,CRITICAL
47.77966203200878,92.79515629946307,0,-2334.854768545021,-2561.212497538596,16929.99911352693,-188.36952307352738,231.48525865979872,-846.4741281231226,WARNING
66.40562289560484,99.21840734027012,0,-8831.774526285932,-2127.8725381666254,24248.660274958525,-2588.892858817913,-504.5746897123632,1721.985245390066,CRITICAL
47.17246814046498,84.10065238243989,1,-6823.510962309335,13.013154737365953,15234.9867531063,-744.2810805718947,-387.2687012878596,-401.5922010048561,WARNING
85.4291295866486,86.33883200822385,0,-1858.1094976577015,-3097.236788138784,17312.0024204467,-1309.6927059095472,-168.35069761306954,141.87207615557125,CRITICAL
27.523635498769224,79.04747899952335,1,629.5295842218109,-804.3157596599924,17279.3554307626,-126.31554583306628,50.63304760759624,164.0688025224912,HEALTHY
53.71406102777874,89.88829428071135,1,-1003.7292040187211,-1186.1262386724188,14029.462446381674,215.6892250352936,513.0073077189895,-359.33043067425314,WARNING
69.51191740227308,95.43067801008976,1,-6313.601854763989,5689.80786274909,10128.027362154255,-3115.0606463925988,310.7071538779255,-552.0112301498167,CRITICAL
30.407947428135984,52.23254045134656,0,-1146.4003067177848,465.7733184908234,18251.224204312315,248.64686609589276,141.43723701001898,195.83708711794665,HEALTHY
48.67642920969611,88.46979623026367,1,4009.6651681696644,1698.4534325297655,12506.4345450417,1053.6371992153277,1103.0043152616354,13.153357915558534,WARNING
88.80368023452999,91.55693584126578,1,1021.2169476812337,-3080.2649250878944,10199.108335299603,-677.4860235428216,1396.531072984191,87.62838566352185,CRITICAL
27.592097790419665,72.58500224103669,0,-2214.173733173655,-406.9169840002802,16836.32323296498,-436.6697836859555,267.2530720844463,75.97840736069669,HEALTHY
46.93937996740037,77.04123570275654,1,-740.8257066217122,226.5340043119391,13578.618962228686,580.4505303717866,1132.572800068421,-838.3179964455611,WARNING
26.389065627004094,79.78736660785948,0,-1181.8741254208012,449.47391283230684,18470.047049537116,-202.95189863717042,-72.29255333879713,83.2892076202905,HEALTHY
59.8378696628529,75.77233211224502,1,394.0863961023599,487.38773103046833,16323.677223862567,357.4204832872195,-556.9585936780653,979.5925486577181,WARNING
71.53410070456627,86.17080937008106,1,12357.256931195669,1125.1785618175822,22014.10187814599,418.99249545655977,2100.634812073961,158.35692594994526,CRITICAL
30.440309270806882,46.1558362535942,1,2235.674686984474,-665.9384827953962,14138.332801006163,-175.67423741855686,-36.19814778794472,-352.3727484079477,HEALTHY
83.09966874934376,90.2978385725701,1,328.46372723023126,-3611.9648813036656,19261.652717066827,2553.898509329006,3579.5813996747543,1485.4461228498521,CRITICAL
80.53099732023422,91.61562283384791,1,-5063.716930620975,1402.3104232702892,11232.102225959616,-1179.8333166815873,1966.902780576694,272.95964757628445,CRITICAL
22.575408615581743,60.00451008306508,0,2236.2996208482405,1384.4724381803876,16341.798605687956,386.28783022541126,-20.37267887313144,144.8820942867059,HEALTHY
73.81612016335755,90.08215630346017,0,-5093.69832785013,-4804.192869298558,27453.663173208664,3649.9052465535997,859.831280846209,-2772.4086516832726,CRITICAL
33.643331426558035,40.7212803930092,0,1514.974223933857,-1838.3093347090476,16075.03891918826,-66.4680343171746,170.68836047943861,247.13212907674875,HEALTHY
74.84780811878382,99.491787310008,0,-7374.2322116517935,-1865.2428892617288,8873.40768031646,-1478.06217201016,-1507.9545907742352,-1881.4090445615566,CRITICAL
59.58449944513222,84.88548722812249,1,-2788.116340942035,-695.7756396914407,15453.839186671685,196.62378862082005,-386.95364228162606,-416.7139883857876,WARNING
86.51812246207224,97.51407960487498,0,-6177.55716153875,7336.356060511583,16089.10127476867,2567.996666830253,1504.028092123488,822.2282826279567,CRITICAL
69.65243919457261,94.83429820667483,0,-4895.099522352819,11759.424924027688,16771.53496129635,275.5365881108953,-3076.5121182017892,-4223.978519704858,CRITICAL
52.161408953981635,77.16299196026526,1,3532.5650378060145,-1203.1940302309001,18281.248637188804,-84.36732364964064,-1526.083932562253,32.25305148511732,WARNING
20.566767598935193,65.73478900279042,0,-677.2028800797007,1249.7827578176905,17236.216006578015,-127.85716346281173,158.00293365700895,-48.11400643521623,HEALTHY
21.20134264506742,47.32678109713171,1,-1764.4481722305586,291.0068624638142,16697.64036740782,133.20691467797198,134.52515217439048,354.14113014675985,HEALTHY
34.4167740203246,65.09586221263386,0,880.9151690332453,-96.34663149429264,16690.698373659437,-110.14335762371505,-123.27308583646803,57.11117790807943,HEALTHY
50.36267826688675,75.23042024052087,1,-5642.413461191741,1593.9503444545294,16757.163775983245,1116.6596321324132,-520.3514831379305,360.8609438105649,WARNING
43.705363513954694,82.10632528650709,1,763.6156096509332,5523.467814757298,15062.475089405643,1331.59819824778,1442.4822536095428,954.133824893726,WARNING
47.776730340948,92.01861654866482,0,1100.7953035698754,1945.1627345433367,14503.99123285808,755.5122402976872,-337.19021071233624,-984.3729732070593,WARNING
73.63335790367069,93.87958889314088,0,8795.070953901504,-2299.5881300147353,25233.828589486908,-192.49509189007046,1289.1697861426314,148.59792554942865,CRITICAL
23.687711637401005,54.32558866116578,0,1105.631691524071,921.7034851003533,16121.45967671794,-100.27308389679041,-192.437835996137,100.48945334580146,HEALTHY
29.431010225899893,50.64405474149234,1,-260.7698462560682,-1238.5631890346672,15236.064181790622,6.720263328797927,-369.94082913439206,-175.83260312426634,HEALTHY
43.73388594922824,91.77155332742849,0,473.391779534263,-5311.112447401676,17364.55793968789,681.9229682942648,-250.0792273470951,-237.38092778744354,WARNING
49.43818219829175,89.334495653629,0,422.5863871623278,-149.4981550705153,14039.410238621347,-261.10866633717177,-93.56637109541352,-1764.0704769233234,WARNING
26.177613712209027,53.954730661719815,0,451.51594201896967,643.8026017043184,17067.96163747445,-28.90481707078092,133.6201903513425,-37.84153189913544,HEALTHY
49.90184899986312,83.63866846726953,0,-932.5586237754294,-3811.501778050769,14455.382103529604,-230.8155150625068,-9.842434140493204,888.3895744354472,WARNING
55.133835465520676,84.07865564607124,1,-2920.2173802696207,2534.167714667093,19438.270348799884,-799.4803158430295,-815.616631031177,-427.2892021286937,WARNING
41.012027742436096,92.85022838188303,1,-5051.8356961001855,1482.9211914222428,14104.867156723312,-866.2278954697501,-796.0565482816227,357.4531856494677,WARNING
27.709842337397163,71.34612050964573,1,220.07432880362106,-1883.8834892338937,17352.628484627345,129.1465577446495,242.43128664502035,-28.809859654903967,HEALTHY
46.349334872651106,86.96403791587717,0,-2140.2424915530037,-468.47329839126843,15198.595786254195,1196.9594356997206,-865.5889201041139,274.70639285335943,WARNING
23.87588971805555,72.74372921492431,1,-175.29452990401285,399.3176017191309,16744.39339501808,100.85757067685451,58.19294602748859,-101.40173185401116,HEALTHY
75.67859812774945,93.80478224510185,1,-13174.306839649127,-3443.878760659578,16162.412513649744,-83.04144658324472,-168.41001688514288,1631.812969738771,CRITICAL
31.187963575479994,71.7872230204323,0,-777.5331239548555,1161.6088136571377,16096.441889848866,-206.0811474455116,-237.70709079222013,397.76401075675886,HEALTHY
22.570974684871288,43.159223974649265,0,2035.0091093347894,358.2066338703748,16105.291075780353,52.85411461236087,-154.89232878486203,-77.26089969558126,HEALTHY
28.025382568983993,45.77550528534669,0,-479.0510573617538,-1773.504333949613,15693.613373861324,0.818601535091253,158.63387335861958,-3.3071500495251303,HEALTHY
78.65745174697201,91.45300145113987,0,-5210.717817160981,1242.1467345840872,15866.301088620286,-413.0317475485335,1176.277499200897,231.28914558516453,CRITICAL
41.46888940318446,83.01109195963664,1,-48.09190266014829,2167.0527147916437,17482.914436664847,-33.7458699497926,12.542416755341616,-757.9838438081317,WARNING
20.454398397194385,70.82570108059048,0,-853.8230875043771,-643.1833420270304,17082.95307171742,-125.80757224072218,-23.530986320432813,3.0055500574194016,HEALTHY
21.70469058045079,40.15673499804373,0,111.89670448859903,103.27915300694296,17902.624039456427,137.28350008934592,43.39455800737453,-189.5028947302784,HEALTHY
57.1905541049498,93.49225064665944,0,-2100.6301769881975,-996.9427195778,17561.528079563897,-616.129396763455,158.31473862693582,158.0629353847715,WARNING
87.53471538838933,89.37526015219916,0,-581.8231060118528,-5940.833350465387,19785.39891123277,-1477.7150026183876,-631.9932897666231,-927.8360806437203,CRITICAL
51.35642761000942,94.97446509075428,1,1396.211301948083,2921.4914819887226,17127.621513059872,273.92243634737514,-187.60541975375003,-611.8724940038712,WARNING
58.717425839289156,92.35288065824,1,4853.015020664805,230.94787348017127,16789.53229311556,-675.1477739927215,-296.48033337354605,-1091.1619385925424,WARNING
48.0341906682668,84.6079417640464,0,1290.1375369389111,2173.771205000299,13652.83239880915,840.3460411080117,146.54243512680011,104.5336878388606,WARNING
84.4339957109223,91.95038959596452,0,3935.763312848241,-9.430844239165573,13883.767098453654,-779.5242722328624,217.56981172159237,-2136.874971691658,CRITICAL
59.132237083277175,89.90145229182977,1,2841.624265938864,-2098.2238417711974,22230.627351386403,482.48876838771486,296.9746870825075,-68.05509111665832,WARNING
29.55953234807036,42.82786432737465,1,-1693.0848158309466,695.7374985106183,16481.963264476126,-67.60760818198924,-78.71057464982783,181.99915642424654,HEALTHY
21.37029864085334,70.26586197409596,0,640.9053137937868,394.39652418284163,15987.142955084679,-249.35564956757293,-26.13079379242264,113.15473993441267,HEALTHY
31.79439338894417,75.26890094065043,1,208.38231251962102,-467.3860752954615,14120.853209244857,127.4582910027979,230.8272473056047,-305.1235856596499,HEALTHY
85.46617589001988,88.72162128542203,0,-1823.3324822702166,-1748.4898243914738,11881.87189150271,1750.139882673368,2834.1613053712235,-1530.7074035262235,CRITICAL
29.33044218878014,60.229691934217776,1,463.6778349956555,548.021227119131,16938.833795968643,160.87515945006646,-89.1579667704921,99.14508768459288,HEALTHY
73.59758001457725,98.07512163375351,0,-5643.737956487692,-5315.178934502417,14037.84203109443,-3865.3494676146975,105.48836847617744,-519.1178956760947,CRITICAL
54.74497577513473,83.55254943374777,0,-525.5298547412434,-1287.0597409018203,14458.457713171689,-612.8934703032841,-452.5207466642165,-414.6663223411623,WARNING
81.34930814276916,95.59612960413251,1,738.2681581959633,-9023.883358929445,21088.46913755603,3157.4448146063723,1190.5037443398123,-310.7146820248787,CRITICAL
71.0754190742684,85.61617342006178,0,-6364.3897437332025,8846.761959641015,18761.625525670668,1245.328431836316,-658.4091266578323,-2616.438395792741,CRITICAL
40.7798280940999,90.01378436977444,1,-4785.466681852012,-3569.5163227109333,17514.986208225924,161.19061927854858,-244.83958490694997,1436.7422501578292,WARNING
31.563827669660782,73.79132912467551,1,513.835193065546,-256.81030841903356,18022.11274954764,300.2077680008921,73.10134696533854,-315.94461414235934,HEALTHY
76.20586583042667,98.00243308151968,0,-7250.111696973594,-3985.6858468459254,12170.216720852586,1052.5717373639586,-843.4237036870055,-3095.680922557323,CRITICAL
20.042632304959586,77.23592577485718,0,1512.5307023025507,-1131.56260654633,15819.885199388405,-74.0865202820879,-30.500014030062406,-69.19616618049815,HEALTHY
79.31035944932493,92.3000292551326,0,622.9801651720093,2325.7911720254415,7671.4631133175635,-1960.9145156464963,-512.5226139820699,-3557.3222407209846,CRITICAL
46.89965691391757,88.3989836200616,1,-6557.874763935358,-45.387316479362305,19377.99639654046,90.16600538918578,956.246303363786,-315.4014231097188,WARNING
23.47675385434025,52.74435851054429,0,1064.8767392902378,-2140.265878777979,14983.326008881437,2.8664119688313,83.5347396967573,169.39941753789165,HEALTHY
51.21486392030834,80.1608778807343,0,506.22562752264884,-461.0364342398449,12270.108401253481,-8.394759489086967,470.8819672260624,226.78069335243532,WARNING
31.390265386289194,43.954944705625415,0,-1835.657632862037,1171.2457893215435,17969.64649288573,155.91334544807629,-197.357209147909,296.4044987231581,HEALTHY
24.74322683844995,73.79883414560406,1,189.32830729237412,297.24427338012407,15194.76753492287,210.79715423657524,114.40125566009458,-140.94568712217676,HEALTHY
41.277515677237766,82.12835710315575,1,-435.36941692187025,-4972.654392072033,14495.251379082234,-577.5196537387255,-102.46643868099454,432.9628357282553,WARNING
42.00086568860022,93.67990733353348,1,3893.4753941241665,-2606.743522958216,12874.266621499615,315.22317874650673,-19.612335633799947,844.9022671267836,WARNING
29.93168015159847,61.75115631989597,0,583.9281853259639,-359.2920907870595,16974.65483069231,221.74071611658155,164.09643623947287,101.45480622145956,HEALTHY
51.43364652198542,93.7557526091758,1,2550.0096365904096,4893.723556714317,17121.809590757104,320.9364366609686,520.0615440160839,-633.060048529793,WARNING
24.728591519741762,45.328396965465146,0,842.8312447284311,1206.4801554150547,16573.56385643463,-198.5530351503641,156.16308556282755,-124.92018135366803,HEALTHY
28.975362264466384,51.889512308344685,0,655.6103982528916,1527.7236195237645,16026.89763019226,158.8766835958355,111.83185778063694,450.57737644394996,HEALTHY
77.95895665754834,92.44562211959281,1,-3798.951319278919,-7701.59186192191,6894.838590582069,85.0942958947996,1631.9247389237332,-4606.122370340886,CRITICAL
40.199419431132455,81.76927502483662,1,2289.1345106458602,2966.038976294022,13911.81913091104,-343.611026425496,-372.35205580446467,1842.6703432742488,WARNING
41.16267582053657,93.58232705382652,0,814.3392825722266,-4156.0974090579675,15595.427995063326,-807.3518631062128,338.8390266414553,696.6944968040301,WARNING
29.312282052588376,68.75963027412932,0,576.4513451224227,-1508.5559682128564,16568.970575073155,90.5512704153389,341.4659619118446,-154.1637605457379,HEALTHY
23.623775010062502,62.19467667996628,0,-147.13950481410694,-656.6240707997048,17257.989751006884,15.687849216734017,36.59888992905208,-166.8542686135931,HEALTHY
34.7358583177635,47.92123786524375,0,-766.0452024003998,-461.26705049830724,14131.20660526866,67.19363468811532,-54.56890926802617,194.0350165135719,HEALTHY
24.542448334681133,69.2351849328883,0,-1831.6822472060262,-1051.3099116393446,17881.431683179628,371.5404687075465,-20.686244858056785,-247.8105405053285,HEALTHY
29.58444532959927,43.25788851564637,1,-1896.4223760596726,-7.582887921041749,15913.696857396038,-324.95627187945246,38.298570334634775,-178.70529699066427,HEALTHY
32.49406088477991,79.43072998342964,1,159.64776940790298,571.4083877187804,17168.78158401419,124.304369723178,-66.5314361126345,218.73952813828828,HEALTHY
72.20653357683958,90.01702901329327,0,3298.507329870509,975.693741493604,18004.297680671178,2797.2492211188282,-501.70932245539,-2913.8750910414597,CRITICAL
34.96434233377078,47.645283537955876,1,-729.6024698074095,361.41731727310287,15090.858456241353,114.47806223513514,90.12068257250777,-373.9632679064328,HEALTHY
85.15441700184564,87.18294192572151,0,-7091.564376992953,-698.9391123354575,10129.958494400467,-459.4967565360655,-1899.0606186249154,-2438.2694424625965,CRITICAL
52.2429964322678,85.98502542755789,0,3166.507908866585,1559.118123268683,19294.10796545996,-593.9527532248472,-268.4460911436842,628.5898834488502,WARNING
47.48672307393479,80.44168315155956,0,-1200.787296014139,3167.282873727221,16082.45918793132,-20.29679455628853,-305.75828096994167,-27.160818038049715,WARNING
47.7832923302696,84.75626963615198,0,2102.2106993262887,3298.697426566097,19793.132109793998,333.5031468001734,-799.9859756680656,-1070.5686839502175,WARNING
54.30202677524934,84.74030783400546,0,-38.67711191761361,-2451.657280575086,20020.873838426473,1316.5328023418538,382.8227924161791,418.6712458328086,WARNING
53.08375711205869,77.7207716699961,0,-823.6027618120867,-3410.082912098285,17279.586485036132,1318.6677218293614,-333.88310196784136,480.7928839446036,WARNING
83.47108773136316,93.2213292563956,1,6644.995440708937,7833.873371040283,5720.4172078621195,952.0216001312513,-2613.642682322297,3516.5443157505565,CRITICAL
20.121622953293198,40.370100897436096,0,77.58372113457052,-1085.2679397855493,15186.196810122665,-78.14112278248565,-56.980953324306185,-113.45234293151634,HEALTHY
25.350980795600027,61.34047701198782,0,381.9354522315533,430.0416471910696,17414.283454031844,47.7578318053027,-51.80842916414063,-39.269969816995655,HEALTHY
48.97853418537789,76.22205912973207,1,1052.3360553107184,-394.3665200635377,14588.707577266434,1860.5453252295924,195.92199224055813,-993.9681304077402,WARNING
86.10350005163,98.90619107565455,1,10333.604345922155,8916.907950860066,19094.201205855636,-446.79683268418177,-394.21597587479073,1516.1314123479365,CRITICAL
47.7390540817552,81.99678051013464,0,733.2904620511846,-1151.4389161856366,16976.261574188306,-71.56426492990414,-679.2916056937694,840.3433197416118,WARNING
85.65728412343381,86.91352820823147,0,2207.3430097574537,6280.340113577753,8882.620646092324,1204.4893925824774,-3583.3219070235623,-1943.2260489170935,CRITICAL
23.91572789352272,53.73546808710577,1,328.76030034284537,27.802915739940044,16308.620387577233,140.2584653504465,-95.71597997283887,-86.1173120364558,HEALTHY
84.69740782611808,85.51427703389805,0,5513.78897080572,6832.070575027197,26666.02135506836,-1996.7026032271167,-1437.5367283421554,-1164.0450600781103,CRITICAL
81.60231132508572,99.34943830682455,0,5076.296090803094,11679.383523057968,24833.614448648037,-2661.0705853023337,-155.9347839335959,-565.4600295878041,CRITICAL
22.325624250916164,79.27363553242124,1,-414.5318053898915,80.1987125408146,15490.879726370777,-66.96344947894674,312.07602822657583,25.710200014216227,HEALTHY
82.63228481249486,88.86505469746896,1,4162.153411545602,-5915.67883778347,11849.343982227827,1863.4215008208846,-947.2593490388997,-188.28504841482567,CRITICAL
85.63911223363453,91.1045654564201,0,3674.755476898925,8250.319098166021,22275.309907264484,2280.082573499859,-1194.929573533659,-2931.2808566321946,CRITICAL
40.483407042670066,81.12689150404293,0,4066.0768365221484,590.1076595609251,15418.943005323255,-641.0285287934923,174.72662074679832,-1708.492810342559,WARNING
67.30069240416783,88.15237351010765,1,3286.2371589788636,-483.6981888904926,13020.250693748792,-205.6630126385817,2159.9663392684033,-2384.5148179875796,CRITICAL
41.65608549429091,91.55439495582016,0,4984.255170371886,1111.2938593323795,15779.20085315709,-567.9649506268918,530.2703974460301,690.3633766929208,WARNING
41.53698923722468,82.8588887874672,0,2637.697315674119,518.5895119513506,18345.753123216913,-33.31423208188598,190.22728533201737,-1003.4846165892717,WARNING
25.135754540503196,56.536657971810456,0,240.75317948856826,2601.683114180395,16949.509645631544,-352.1525518311635,150.6683242209065,76.23167697655555,HEALTHY
56.577942239517554,87.06835156944567,1,-619.3775236450157,-342.10008340700705,18842.97143487048,74.66417232758344,-803.7325506134684,563.8205044996241,WARNING
30.434272197452103,40.12873054417115,1,-393.9813633024213,-411.82615431891975,14939.442556475204,-332.25589865555355,5.8093544763487985,215.06282787187092,HEALTHY
22.439912226582276,69.37462705968873,0,-991.660442633666,689.4315705151326,16262.674720691635,-81.5100040340958,-171.11344728465582,-205.58735221466776,HEALTHY
20.165468966429707,56.64615992719046,0,1369.4409764241043,-384.0321778801405,18133.241622043526,158.8034147082267,91.50746922964605,-238.71938206419907,HEALTHY
53.703812140287276,75.53970071736984,0,3878.594414723222,661.2010026828391,16795.394726571616,157.31948370752207,290.15190439400635,-886.9710929812869,WARNING
24.058388847319872,49.95167154956708,0,60.13697796829224,347.5891025627698,16572.846357130915,-334.83713976278074,-73.93941119421731,-73.01964454813272,HEALTHY
23.338646263565458,55.866064078170076,0,-471.0383056183228,232.04993735763628,14935.915658502676,-281.49275487531105,-143.6888442504872,-42.68943034236945,HEALTHY
32.01124657229182,79.15725742463844,1,935.6783931474612,1271.5550949941587,17105.672064043236,-225.8103542434458,-104.90405325595474,97.87491224558362,HEALTHY
46.89747567386419,87.98088934536428,0,-713.2918429074033,1939.8189791568116,16733.91202730871,322.2152608790514,476.3849517025075,686.0765066785409,WARNING
46.89924169518464,77.09607979079178,1,2456.7601202387655,-2403.520783704524,15324.403485547118,-399.51632247966165,151.81884525797523,22.61161757150921,WARNING
24.207917327831012,72.81876065443414,0,74.86130625002909,1318.6179262194737,14454.219768194973,-79.43819330268649,319.8109030957377,112.63968069346244,HEALTHY
31.899471150481023,54.39530391018219,1,-1290.942219493224,-406.97436637337114,16398.00496737138,112.75757500138293,-118.27894596760949,311.0397068294684,HEALTHY
27.14503599951648,59.90159408584409,1,-656.3093912302666,-792.6942821860782,17130.100986869325,-325.0071938493817,18.43590192729741,-63.31167045250234,HEALTHY
71.09341655069525,97.22832781318178,0,-6021.43929194334,9560.74031735967,14380.22724847677,562.1196817222758,-299.9497924963205,-890.9552097514985,CRITICAL
26.027201879025426,43.052098166963184,1,-28.55198453568226,118.67908406769122,16824.519606380916,-183.79382421095562,129.46653710269572,-325.57718779104334,HEALTHY
86.00760103945349,88.81637207862543,0,180.3777790994792,-7472.941230713696,15256.634660268166,860.0441483003427,-847.2880192260741,-4405.861822715382,CRITICAL
68.74637301463235,99.18891791944114,0,-577.0336031134817,5247.1060472482195,13182.619907104223,859.4233568415267,-1664.9767272989086,3565.240406840969,CRITICAL
21.74034022022254,41.69166996890725,0,1568.778604102849,-1328.096262433748,16906.24368124801,-163.28079722020837,38.301387758546134,13.674125862052206,HEALTHY
80.04812381517429,99.56071081632003,1,2213.527904351138,-3577.3985992738394,20312.41151519466,-402.4247912875637,3583.4001193099757,-1021.7864384753734,CRITICAL
67.41553673842733,98.41998580966694,0,4527.478388916024,-10922.004658362619,18774.13820571497,2993.578442665098,-762.3154364340176,484.39699264226056,CRITICAL
68.48886511408911,96.75220222763217,0,-1138.806353067112,9361.011576993544,23351.650942827215,597.387283082691,3348.4299424169335,619.3292260927826,CRITICAL
88.67685774157474,96.41329375499207,1,7025.59671672216,-7375.169714271193,13156.268949855414,-4295.406478533707,2749.967272423645,501.0892566467271,CRITICAL
53.19463064521514,81.47155208079023,0,484.04123691746713,-1394.1924869329298,16028.979567465683,148.09344219526866,415.2774949944667,42.949998964126976,WARNING
50.87187936930339,84.35970732207883,0,3795.807061418285,1266.138116269407,13961.123168151684,16.97818772089387,-300.20438048808734,565.4080098485337,WARNING
77.16820120424158,89.81631638961302,1,-4699.70267280188,-7794.176898312758,5888.042303022018,2509.931457256626,1803.1768984444416,-531.2758586245507,CRITICAL
32.3476102339349,60.89924162064473,0,-969.199610313766,551.0373022425374,18230.626500830473,44.456543491656795,32.09524139976914,-187.44560976676453,HEALTHY
40.3746058412084,82.83203761843112,0,764.7494544563739,-70.76922325184927,21021.26462969916,782.4511343845642,960.7481360522175,-540.0885770060297,WARNING
80.47736105484005,94.26933281564875,0,-7884.244991515591,-4643.186017628146,9631.854814093249,2199.221474613907,2849.3507777460686,-1578.620464393006,CRITICAL
78.81739221906963,98.11658177741116,0,-4548.313685302798,-1638.7748709325285,13939.525488032554,-377.2382056586592,-188.49242022624665,1626.723159454425,CRITICAL
66.917480415378,99.0038207862432,0,1952.3889659419963,-4144.127135059423,18868.69280375053,-1763.1748260274676,2210.221807608383,1054.1033785252234,CRITICAL
69.00511885988864,96.67833189867308,0,2049.7136340233133,-1747.7516231088084,22899.556658117486,617.53454847814,532.3096410288681,2029.014057838951,CRITICAL
86.57301561420586,85.74803263459961,1,-8808.828759697562,7179.915209636867,2381.416556475117,1224.5539776134947,1404.1009677200316,3370.33426409562,CRITICAL
32.43325048823914,57.235500946472236,1,587.7629852837481,115.1517990245837,15641.980258443022,-260.931079161485,280.90867480217514,-321.10868132821605,HEALTHY
89.16694385625574,89.23982446341196,0,-3257.5005786132115,4725.404690941566,10929.030633616165,2364.031139417735,3043.4457990171322,-1152.2368287826735,CRITICAL
22.87754171901516,53.3525964683695,0,-1099.0392245318592,1796.665201675017,15530.504519938659,-133.8873827266981,-195.66158996449957,359.6960174276235,HEALTHY
56.621068817946764,76.97781679964633,0,-6653.039328596783,-1953.7817086589985,17552.9860850357,1198.6748328439055,-10.192058533423454,67.11103480237004,WARNING
89.66630886936882,94.22162127729739,0,-3854.9112558534516,5275.15311855921,23606.731939989753,1328.9989690971202,1056.0105763941058,4722.009874000718,CRITICAL
87.74634883495364,91.4670940317409,1,-4600.334047604311,12687.585716734688,16263.681155989474,-1425.1179429805577,850.1228660108336,-2171.5465986109007,CRITICAL
47.14132277506612,92.15234999536557,0,302.286073616345,-922.8748356481293,17750.71015930826,1315.587565125068,179.44174841639517,1384.9058440952872,WARNING
25.978388362161915,46.806105645780676,0,-33.37823654554943,1210.3780553422966,16425.338176966314,-108.5727210222694,-199.54821572735992,254.08945673172352,HEALTHY
26.477106426616658,71.27119303714905,1,177.37917091446778,-2099.8732322190467,15784.125831399184,219.66584013880959,-180.08584509289793,118.42039220862863,HEALTHY
82.46444821812912,98.30145467562927,0,-756.8492992639091,1960.0255292530067,10771.387567247759,-375.1976425536795,985.8996209339386,-650.8425427456621,CRITICAL
27.58545115672061,42.48165667826217,0,1055.5446021319751,2750.7230305373296,15868.991723644309,-64.4717101690485,-529.8199086534119,270.3005806912242,HEALTHY
89.24448020779396,90.22608120704652,1,1667.0568568310869,14066.516326582776,23861.576685992084,-496.19409926362056,-4838.258276151512,163.28546884231847,CRITICAL
51.82369574232146,94.38233061881478,1,231.25404403423147,4791.373188434335,15916.80663383776,-110.16743561530313,135.9210147057571,166.2772045156422,WARNING
21.08783475431722,68.13120216169001,0,53.54063061550116,971.6095632513874,17250.417585454554,-153.86691681825985,-6.070824372729837,158.81927499188876,HEALTHY
25.374341954358233,73.11314428264771,1,-1453.7985507462724,-32.027569158644816,17274.2605314672,211.4978558604357,74.18175812705738,-46.657712349278675,HEALTHY
72.80467234300522,91.51615335007813,1,6386.737248843811,-726.2489524052304,6658.239703278157,2043.3016701153547,-3552.5979231315573,-3091.909555846082,CRITICAL
22.47237013020143,46.8232764622836,0,1221.8005525188132,1749.5813052724989,15369.581122832,156.5740487162693,-193.09959716581113,6.03231450702498,HEALTHY
49.18398766790774,94.90566806283461,0,-1552.8981086130725,-4789.672565771121,20159.716628182865,-172.40309982616,-306.88622162569493,-36.737877617499834,WARNING
65.64680264731578,88.264379688243,1,-1099.9010521398236,-6562.610401353051,20687.019847679738,-1128.7208493680666,-2995.717349558934,-1078.221321403298,CRITICAL
54.26062912750208,80.47005731659414,0,-1147.2875544300057,1061.3420809208287,18884.850680584554,495.9107095148399,-852.6255369464767,-815.1320206210136,WARNING
80.8284499830792,93.49040695848507,1,-882.5879046269099,-5143.547891747478,3920.535735294378,1148.2601017340498,1536.2442384295348,-2301.0699413986135,CRITICAL
28.972736683130037,50.57617191718582,1,519.4304105141906,-1283.8638820065703,17360.54447515381,411.29026613119777,-17.619138132509114,-34.23908174080596,HEALTHY
84.9763034496972,99.29637809467933,1,-1890.381657594994,397.07299119061906,15815.37596796921,-3313.932911477456,3104.960747570146,491.5700347623806,CRITICAL
25.885905822927118,78.24888762595793,0,1142.326454538352,-1120.8223655203874,14784.863513552988,-81.34461660931677,-17.668531801819007,184.26992059729926,HEALTHY
22.75135465246934,40.27362992593454,1,-1090.8965899727684,794.3011319770063,16202.108081486627,27.638127356803032,25.418549768559533,17.39404351507163,HEALTHY
59.649376915733875,89.95343540160316,0,-842.8123241814892,296.5518711600887,17631.593238172896,318.95341095322823,7.051846272112802,-749.0654608803579,WARNING
31.954212560234687,63.617044124315655,1,-1606.6351746176606,-372.67227287317314,17569.01963795241,-254.06174537671114,-69.07464910427012,340.5289338744399,HEALTHY
68.36472834544908,94.01394400905565,0,-241.46564815311362,503.8894649685276,16825.833357641437,-1568.883837482493,863.4115706429603,-462.81600330651446,CRITICAL
32.533560649468406,78.68852827233073,1,-1279.046251076621,1129.8505923307946,15672.539206141746,129.71553452054195,10.777484378204411,187.69541101720847,HEALTHY
24.431330544706473,43.62237870403682,0,-1570.8814571259122,1355.572935710348,15773.142360194934,100.8966512766034,-312.6068613142507,-235.8919329015561,HEALTHY
51.86475443130835,85.77924238712842,1,-1970.5379182547883,-2644.8416550222732,16598.816523331017,353.7936913521442,-1373.771346164645,-331.83715112506445,WARNING
48.679587023743295,81.22005626306182,1,301.9261638784042,-1597.6633320800404,18839.027465303974,-301.54012607626885,-931.4543581144385,-539.6993089731101,WARNING
21.143588269603466,50.98815260191568,1,281.73506382937404,1568.3392760301244,16213.820333493448,-262.81346170680797,217.4390368790609,36.367807441012154,HEALTHY
23.024828169003385,43.12968394320091,1,2614.7989353617695,402.2988556883816,16951.06921878559,-154.60943735536853,-26.6760668397653,-21.489814551236055,HEALTHY
52.13535583941109,81.619038379133,0,-4999.966400775727,-5245.468658178004,19688.702480399505,-32.94097854207056,128.26933732110297,-1253.4556950696992,WARNING
31.292134917665148,72.93074612459088,1,-2217.591079358771,-1168.1778278502002,15287.124920616014,164.41321560650547,174.430621136811,64.80728854130666,HEALTHY
21.58586840646702,66.59231034320979,0,858.5154297756005,-640.5650925950658,16568.649072874137,149.9574823813469,115.32716140071324,119.81899404505465,HEALTHY
47.897073488073566,80.09635247288763,1,-924.0126530886855,1995.400638143695,13316.7885163701,-134.19849064633348,738.1612300939552,-355.0225247819664,WARNING
72.00373427376297,89.39986343892949,0,183.02888700256756,-3226.9744107198044,11227.683213575494,-2160.1149506034803,1568.191192744997,-120.81226443227116,CRITICAL
65.47900098765106,98.88760162447156,0,1438.7810024519322,6621.761462668721,1229.0098851723499,983.5597792013818,-920.3740977957578,920.8445359687779,CRITICAL
51.41141418260776,89.25811580729675,0,-3297.561337123337,-217.70251292078754,16565.848712600196,741.8600229695538,-279.35260896561056,431.48382030437494,WARNING
69.42085030228014,97.07680037231066,1,5999.442402990352,4468.7358734042455,26100.458703363136,-2133.2906901819424,-1936.4880606031295,2104.327362562816,CRITICAL
79.34328859555475,89.82174277063537,1,-6932.976252772584,-15420.885291482116,22546.026470725938,-7.497067603703245,3195.3499934099655,1714.6443838123544,CRITICAL
40.40435040295595,88.41520043423068,1,1540.4402125109668,1391.4450551889445,17638.026014839776,-495.45321507730966,-1068.8368574010365,-272.7650767093822,WARNING
43.851521946936806,82.12179347509493,0,707.3390772038144,827.6711894123455,17291.409000756586,-370.36024810635956,-105.96185457734273,-320.98588917218416,WARNING
86.9151359664688,97.27119525499347,0,4292.8705906982,-737.3162518614783,14750.052340031429,-537.3372328180822,28.15959692916853,1306.8747413441333,CRITICAL
27.641331922246845,79.86787415411908,0,-732.7536296899959,-701.6719100240756,16874.636221422716,-205.580553142739,94.12052015500895,146.022671301947,HEALTHY
68.84360071459889,99.21485900453644,0,-2158.13001719919,6282.450370613799,21713.66614993183,-1239.0283186521526,169.24064582331295,-843.1200667109104,CRITICAL
45.00669127469346,77.28644143617028,0,1323.2498348591732,3390.266785525813,15133.618296963177,372.4157025909502,-721.060238433101,1712.0386983795788,WARNING
71.5517731625537,94.81218388361908,1,-1958.14433589371,-2202.9905459551373,23263.85516514636,-5431.527482165077,-427.4644970431257,1486.560993599253,CRITICAL
57.408103398841995,78.40866403759992,0,486.0430528611912,-575.338836773883,16549.04687335799,-801.7742053194349,-26.42829537870456,93.81684632659172,WARNING
48.49735854136022,80.77774598748454,0,3018.4153197841524,1538.6117170212851,21287.872606964724,-983.947183763624,-929.201215064255,-811.285615512721,WARNING
78.80010699713294,88.16740704944128,0,-13528.30071141066,1014.7609385120464,20673.68012069406,3122.0359912209524,745.8371122816851,12.785406173322054,CRITICAL
59.7944626510943,84.68328494784004,1,490.6096255884885,217.86250679148685,15224.031788172073,1237.1704328616393,-104.30743142302069,-885.4959093827283,WARNING
23.599840458049364,68.4053056225815,0,85.20944963390106,-2991.1359709007234,16197.103841838016,-326.094648743028,241.1989033093632,155.48147055290224,HEALTHY
84.97442225097646,99.26772716274557,1,-2322.3181574023656,-1742.2979499047801,33316.00149903039,2157.303891919452,2300.2573567872646,-2920.571812117624,CRITICAL
25.345797177845423,52.939510465725846,1,21.092747850587244,-1131.0672355025877,16316.722535086465,-214.9322078865725,-156.4707845003987,170.63306128263835,HEALTHY
51.376374635329896,86.17362887874468,0,1169.2484323065482,-1671.9173245747704,18987.515738797814,-1280.0174214407593,-208.4277543832581,-431.1484164935092,WARNING
28.393682816980128,67.48156602329922,1,951.4492770580865,-366.5070203680518,14680.128413173281,-184.8931976259109,312.57775370163955,-54.798616365860845,HEALTHY
82.10300676764697,89.30386770635035,0,-4344.978107560794,61.46265772518738,13809.65221375305,-1057.9633375387536,1161.9404821610353,1573.8328098750396,CRITICAL
69.27347320338941,93.43596996302198,0,-1063.9367273402333,1517.3567741418592,12232.414956294166,979.924618905432,1920.121749403045,599.5923431458594,CRITICAL
31.14096094181135,56.57233249336692,1,191.1242338363922,-1149.7074728974058,16190.390488964491,148.91727969462602,128.38942588874022,-54.0535208727778,HEALTHY
46.187337342726224,86.23692749438405,0,1284.1880394832654,-1653.7197132037993,16570.570024542118,-438.92555640489144,-510.7010532542735,-285.893895091922,WARNING
75.2256780228662,87.9325388529483,1,3536.6658944251712,4549.018398033397,20728.29324953671,2431.3235853518213,1724.2217150359986,298.14173848948343,CRITICAL
33.839677094053584,60.09487279888382,0,765.4492384322756,511.25327853957435,15972.145488955233,162.272463480942,27.659623359982206,-100.84419278443193,HEALTHY
43.55408922393628,90.74245725878883,0,-1616.6242147471105,-3915.9333588529776,16451.08184328699,390.35789889797303,475.44527116252976,57.25216031680044,WARNING
25.366973979881628,59.76849789001199,0,69.77921349879786,1042.019483162937,15926.961664137603,-60.376901038110354,48.72650000147473,-91.81821271091721,HEALTHY
77.56005549267958,90.02115200435988,1,-4901.318360698313,3126.3705379056146,13205.428520495176,2151.5697347067035,4950.1698112568,149.46636107999376,CRITICAL
31.02138933274068,52.86132035353363,1,-1707.8379261395442,332.4680837588702,17390.5957152777,256.4271480720262,-75.67037651995328,29.063611065147565,HEALTHY
23.872598812867537,66.98431411664865,0,-483.0610516834395,146.79301198554936,17996.220628255425,179.36786317310637,-53.706129581166465,-178.23844508305748,HEALTHY
25.096553634482657,58.22476625749006,1,991.2586581920884,1038.3776547651487,15295.680512970946,-255.87409917056902,-21.71859414248884,-159.86969067520124,HEALTHY
26.44767004614733,52.25769346200972,1,-1258.0246952287855,731.6011021584401,17315.269595995574,146.38198123447336,206.51136247071946,312.78002897990655,HEALTHY
74.45762282458702,86.03828001114083,0,-920.6542038930825,1178.720277408807,25910.15780935686,-768.4400906919426,-2173.847633001107,3626.9277145971023,CRITICAL
76.15835064301595,97.72411901000842,0,-5469.102173737276,-1063.2074395560676,10353.50937888349,-888.8855820253144,2001.0083542623538,-1073.0532023479882,CRITICAL
70.74111694975367,99.59306987232858,1,3837.351393008065,3930.0188077167036,18629.26152274015,-1703.2969485665255,1846.5397810909092,-219.2353192879629,CRITICAL
34.139040507271204,73.28764609230231,0,-1349.925637861273,-455.1989048161591,15036.746082418651,-179.75996204876756,110.2034120452599,-146.69641333565588,HEALTHY
24.481743065813774,75.6480029225441,0,-916.2741005637249,1355.4428011054958,17554.198709196604,26.859299449558577,15.919572475207278,110.81155422318143,HEALTHY
43.04520260223753,75.89716672370771,1,-1752.812736042555,2460.575543777611,19858.376282236473,798.5218232427449,-290.93310476075874,-260.6884954973282,WARNING
58.902350577746724,79.12140504841246,0,-1146.5007154746493,-989.5759416748195,23313.474023729097,-1214.4829878621129,450.8479800964698,1699.1613690657791,WARNING
22.866584340367176,70.75056722884642,1,66.76212535438971,-795.4472358669886,16322.381955207728,245.8100612695231,28.58187752763472,426.3540164124327,HEALTHY
51.174468164251046,76.16092674037007,0,2103.802479702328,1938.3443022651343,17154.94219243946,-794.47649186693,1152.7544761287186,-124.71766320760072,WARNING
71.81429173546036,88.30485366043831,0,-5815.675190066192,5063.935512715179,21778.249197022746,4794.047836402373,964.0795944392984,1448.1884050121864,CRITICAL
21.519141857465094,67.03570491320843,0,753.419463502431,-614.5387836910952,15527.651481718796,-122.32674733891183,223.72646683084236,2.6086748753904265,HEALTHY
31.852633107968085,64.23839899124046,1,-839.2175232226385,-309.2123758512146,16715.263431403564,195.10902542447184,-95.83484756905798,-37.131795332763424,HEALTHY
69.39528885575393,90.15035786046712,1,-553.0444803198212,-4641.905471206345,9490.910390999938,1002.6732543617259,2109.801435194727,4889.962601332803,CRITICAL
59.831955510599705,94.66431973307492,0,-2713.987889932376,-60.42051835096658,11487.337141719276,404.808616107188,-89.39662657663517,-889.0809593720815,WARNING
77.46792840520013,96.95993628608403,0,8827.572751234888,-3614.9632134782196,13968.838008359782,-1583.905520026264,-241.2263392737726,-2039.6969749670473,CRITICAL
27.945709491625514,69.2955378639022,1,-1026.3692076658922,1230.0005727191501,15419.294574249285,325.69371095446445,-56.87692992130188,318.1164145235701,HEALTHY
24.753695207278163,58.69549341791702,0,-369.82908854451244,-327.93652237750536,16558.654680638967,-175.65616246580282,-288.73734734551294,273.937032472057,HEALTHY
22.36491540195362,46.96041792064497,1,-788.6965092092665,1373.4059423502538,16701.79555072337,-132.70593426184627,-99.74526001476465,-133.9841288876968,HEALTHY
41.379746165173614,94.3686255178494,1,1181.8724336892396,544.927800096648,14190.373547076299,991.1126044852263,-984.9339716992617,-1194.2441564186706,WARNING
34.205539816080844,78.69424711153101,0,-734.591576798049,-810.2524370143808,16584.569197230943,229.72746988574303,-203.16436379567938,12.33596996959433,HEALTHY
25.46531357642348,51.80967209958568,0,-2604.213856627134,198.94814679649454,16820.73855173351,80.85895099233949,247.1564383644308,-214.21073592980977,HEALTHY
33.65201955173201,72.32090519626212,0,1265.7078408647005,-866.1748482145007,17353.457200526736,85.43887237433697,-129.2454619687606,355.0621785219023,HEALTHY
72.96380343757757,91.2698203628331,1,6087.291227985783,-3831.695319559889,11028.319005754862,93.50197661368392,1633.5328375806373,327.306223816711,CRITICAL
79.63319632625597,93.20381941936068,0,-3643.793248651242,-1746.6394655692527,17695.993735551343,1736.7944593750653,-683.9679704347528,3756.74640693822,CRITICAL
20.46774702591927,50.490561771993,0,235.99975667733082,232.67635791379442,15903.877410203706,459.6937723469667,-253.60430232861364,-265.8291654323032,HEALTHY
59.022163641652256,91.35555767943256,1,-2233.952419945027,3967.249142582728,10232.910444759487,-98.12455087774076,820.5924717256477,-65.28246587923523,WARNING
82.82836883430518,88.36270996394043,1,2588.310710403136,-835.0307761146028,22626.097724039428,1624.686791440869,-84.96631773766336,-2886.3565382671427,CRITICAL
46.79356875458451,87.6896014634696,0,-898.2270989125443,-643.4781869943819,14868.638824599386,1303.816569020821,280.32511888454025,230.02643433259607,WARNING
21.078600759746685,76.36022355342813,0,-568.2717860755411,671.8296377336286,17028.31849407136,-179.3168826911891,-228.47449818018845,-218.3805391426989,HEALTHY
47.00323063936065,89.6861933321721,0,-1504.986327920343,-3896.127124839738,22871.741133530817,281.95413532213195,1030.4091411645704,-780.9235664320786,WARNING
67.64703875952785,99.64809249140141,0,-2357.4397062369403,437.04962781399973,5834.703980772747,-815.4108724604461,-221.2381570976304,3529.0702481563235,CRITICAL
78.97550634088796,94.2096821100786,1,1263.4245140036523,314.8683430227057,17662.482375829328,-175.24709250846212,863.7109869232318,-1149.2058430680302,CRITICAL
88.10535485466221,85.61053662730065,0,-1217.4538714995667,2479.3526981162127,4679.39603577099,-1658.2001042322133,1182.6403211476868,-1896.247892865085,CRITICAL
49.160476410671784,90.04722884794785,1,1209.6028125661537,-105.8297391505319,18651.085365932315,-1016.2843216179043,-465.2906336057098,-84.7528026733877,WARNING
56.27255760445961,87.37193923002202,0,-1106.1631391427463,4552.916339481202,21413.956076905637,1921.610847105862,-173.8292138365364,73.66154094559835,WARNING
33.10515671279508,79.36333876797181,1,-266.3173285227033,-664.5349296422127,18121.72942874446,33.695231882996914,-1.7728045312755008,-26.934550816519565,HEALTHY
68.5792355346158,92.37491688307335,0,1466.7266976332987,6233.038271892561,17023.268058606245,1269.9257472251004,-56.33381689910243,-64.37190188856141,CRITICAL
24.29134883046891,68.91074704043183,0,659.4512411136116,-803.948414727481,16691.34561670797,-49.55048364794185,264.08280195676684,-174.88712966798363,HEALTHY
59.14981062042442,84.17256974862931,1,-368.9379109929862,-392.2239383979452,18960.874164242057,400.3209233716948,-49.89791810321685,257.7469200422779,WARNING
44.11143450696813,76.42876766017656,0,840.1885312633661,1250.2820740521668,17632.897270623005,619.1097061672165,201.70502907817826,251.19365087524315,WARNING
30.907442146102078,79.23044697555406,0,744.1477889481191,1386.5401349918163,16955.494736463563,-7.035483300711435,126.34360637012306,54.58322285053778,HEALTHY
20.137483252757246,48.05596411175549,1,-147.09835219442016,-1973.765047615767,16737.34892653575,413.47643406748966,-48.779632689657014,-35.569155080684624,HEALTHY
25.17834714202538,60.29647754871235,0,-64.07030012849756,-590.2754833597827,17864.568055541888,-141.87005758721335,68.76896462485988,153.77947264489464,HEALTHY
42.3529245562847,83.09583188641068,1,-2308.6624913948817,189.73657960023073,17187.65771825746,981.5273116609732,-412.0164891935921,1132.4787064975862,WARNING
46.61201619940004,92.2102297317489,0,1212.1008530654549,-124.80249363368472,15785.989956511865,-455.5782174960371,-198.13022199279126,-33.190766721505526,WARNING
40.2925707841014,92.5864331853012,1,-138.0881130541909,-4632.566331188798,19128.741341833313,-1396.0713024588222,722.7681601377599,609.5871609254111,WARNING
20.829985807450193,47.92522967294308,0,-1879.9277746836378,1439.668980113873,15233.115707673687,-90.99988396751446,57.771580839535154,-8.341171217080168,HEALTHY
54.27885422414755,90.85182280393089,0,-1543.259175047042,-2747.12390250171,20017.773254887565,-759.1799438939836,-1617.3197171986144,398.13535737483124,WARNING
85.18604971486359,94.83476545333228,0,-4479.360303354646,3995.1471437083674,14823.336547515679,-1427.3231781872744,389.46450560322205,-2158.835403821967,CRITICAL
79.80007455398363,96.53217484357326,1,-3862.61319622132,-11339.206572252906,13071.27969048873,-3262.3442604309103,-1425.1636585892945,656.3007814089201,CRITICAL
71.05544109158981,95.22160398195845,0,10085.344543391204,-7986.841141643625,23032.925435832505,-2577.833123846669,-3035.148987735825,-2467.039833906825,CRITICAL
21.80545364314979,42.70418997889533,1,-923.7864361929601,767.4760725200329,15348.377652524672,221.4128472130269,-16.79637376123459,-10.141843973096746,HEALTHY
84.12563308725369,97.68093256240772,1,-49.39418741706435,342.32302095218296,15894.695229461327,-2594.4230783325465,320.26979396574507,-1167.2511709092996,CRITICAL
44.33886450814672,76.22343510331888,0,-2674.4476077728764,-3851.027659875869,20064.3445704128,556.8413864684217,568.3969027478925,-151.55743266955736,WARNING
51.136474217649415,78.42581109335346,1,-194.80683919628976,1373.9357901611106,20156.297235667258,782.8366957551896,-993.5690490572284,156.7964782307341,WARNING
88.52403158349722,92.66912245545002,1,-8550.400650865953,-8220.826456559356,28167.995415930607,2223.7067375932493,4147.32835086751,-740.4280612158211,CRITICAL
47.828720404457115,94.7984298254988,1,-3630.6088648957725,-1204.4151531061339,17395.774671474304,771.5939758111739,-152.10131968436795,-622.2217869171568,WARNING
42.66793177881618,92.59810866615585,1,2808.5682177394046,1692.4852434376355,16866.154607875476,1062.8954214565258,294.18797033959305,913.4738821532932,WARNING
27.069307510972468,79.16419752060618,0,-317.57319882373804,-675.4614448557784,16853.559169352928,-201.31219821758043,-44.85103175151395,-118.83534974599151,HEALTHY
32.2702214888374,74.42922333025373,0,127.01223937179829,-1249.4437227999267,18329.115614486785,-30.66729150322807,-181.39744508097607,-163.47083102456585,HEALTHY
69.07745015379051,96.49830055509597,0,-6964.142756998517,7297.652269797225,17104.4367878381,4624.566778321901,514.29245097768,-40.343418970107756,CRITICAL
28.935197362422944,43.22461620678407,1,-328.66201516229586,-1976.000447720833,14951.060879314486,2.3856474800314205,205.5764188041503,-130.50182808414476,HEALTHY
54.53052387219846,93.25205043477801,1,-630.36022598123,-1756.5959201489457,16377.229685562104,-155.69007150059187,568.0159328766124,-1427.4890221028397,WARNING
45.29547329254552,83.16250268415874,0,4664.318389921142,-806.3717755665538,18486.70384651604,860.1096386602441,711.9458807791075,87.89096573150455,WARNING
81.46875427665564,90.32127465973502,1,7706.966265210796,5946.356545335382,24722.651771924717,-316.49274488323164,-992.2279595667533,168.04352186618627,CRITICAL
86.65420279480159,89.55862204572732,1,4233.2913887759205,933.150225501938,10363.397135450625,-1937.6482280699888,-3997.2111331110136,-1662.6428182512323,CRITICAL
25.349133693115792,50.45589266241579,0,706.1285491093263,1190.7461160252476,16867.324827252804,212.23885525531654,6.4999725775723824,161.1187669990352,HEALTHY
44.31851201877915,92.68942627151056,0,-988.1108135704446,217.88142596090267,15492.278366780687,-505.9226244045994,-712.9662839762559,-105.7168104791996,WARNING
52.96847863543157,80.79916643607574,0,5821.136807341152,-1139.8137165458184,18991.764086773004,194.54193170625155,-404.6865641732186,-354.7208131124176,WARNING
24.768570106599253,40.35108847791718,1,79.50473236769864,65.35059609776401,16463.756526899215,-171.84662841928423,-41.224901450528236,152.06437506997153,HEALTHY
23.156895082648013,67.58332262132919,0,2149.5532637328092,1833.4845771769812,15633.100529038915,-408.7873389305192,-19.840070586311338,75.3020276341241,HEALTHY
85.64696693646138,94.77294528047511,0,-4309.949323702887,3805.2817865269913,25171.386162987787,-161.8520233685659,1490.8045392064323,2049.9677735964297,CRITICAL
70.45156432135175,97.49910526319678,0,-4650.2591644906015,-7804.97287033368,25207.489434515228,-111.354625733378,-847.5925648317271,-1042.4597547402188,CRITICAL
84.94475765015623,99.60967142630868,0,3095.740972445204,1760.43186349342,24988.45238722307,2443.7007640826746,-2427.795742250618,-196.6275645292236,CRITICAL
70.99608196273846,97.92404520659845,1,-3138.503980167957,-4377.366468885547,16866.27640125502,2740.6330002786276,3578.7488981903157,-797.9922884445933,CRITICAL
28.245758827449666,56.686571159028084,0,-313.74127735429073,420.1532939862862,15839.636418490905,186.2681846366005,14.264863224897779,-509.88461111693954,HEALTHY
77.10467707342514,98.7990768727176,1,-2193.075817684627,-12887.1009379544,22518.373020851075,-2172.7997732032377,-965.341743883958,1556.1939302963792,CRITICAL
25.85443320819156,75.64086731868846,1,1729.8853986834447,-1477.0148628144282,15220.142282240175,366.3244569316773,-146.65301869727077,-133.96067161517232,HEALTHY
88.25183995435988,98.27115077260034,0,2112.3090657109633,-11799.833596280128,12741.643090991527,1151.4984366333983,-384.17047168609463,903.7604830297661,CRITICAL
43.448821585864614,91.31418540004145,0,4071.5692447031033,462.09941090095026,20385.4062684249,-276.34768643679854,-371.5603351564195,-850.6908033588255,WARNING
47.371617801308425,81.41006787347476,0,-767.4851147085045,1461.8133675898512,13653.700225694009,-1031.202113652571,-590.5176287721991,-155.79554953998928,WARNING
54.33427219203853,77.20465817442465,1,-470.2675793048159,1048.2021947754286,16707.456082520224,-232.76372338296943,-242.44711656188562,-769.1927781848384,WARNING
56.820552755148235,90.23626193751727,0,2745.89937133537,-1191.877605233277,19054.852355058163,-272.52762626027857,-47.872833113760755,345.6502004898081,WARNING
65.15106742145167,91.04548501813824,0,-272.8354107827088,4609.413326318197,25055.210370657114,1924.2182277704512,-3191.4827269240836,-2672.570263676426,CRITICAL
23.98054599680516,67.51851360474836,1,1155.994016760827,1382.385840370535,15044.213971557141,249.28226020915068,76.80839513510853,285.52460746151536,HEALTHY
50.642222676740076,84.55754154245462,1,3344.980928717872,-859.7584494154714,15162.94666010905,-1085.835685653777,325.5572943999315,-1278.7333957955018,WARNING
65.08177313328126,90.00401768746288,1,-3251.9902325339594,2886.879654609698,19995.666566839976,3620.023459099158,892.6868249375258,-1666.1176366296017,CRITICAL
33.62651827819063,58.722762169371606,0,742.1528043764571,998.8166447781508,17756.11684657237,121.4490907366812,377.46717977888306,23.9005042529364,HEALTHY
33.70721783937417,54.73181870622838,1,1070.098484827274,166.78144440249736,16723.089160804786,68.10761147448467,-215.5745627256251,204.81468835321942,HEALTHY
50.940782872413116,85.65771273281739,0,-4811.371101915201,-348.46936570813983,16182.945254092938,-1390.536606883734,449.7292632792863,-637.9473810288787,WARNING
57.67714527199919,93.21355479836609,1,3150.9277201596087,-1404.3284061717372,19123.654494213024,-112.05296398679683,350.45468957625604,-1242.5272008763823,WARNING
21.66466286877722,65.37696581146335,0,-508.1401976473109,-147.78031881747154,15930.751590976986,290.49350689414905,65.34895292046401,60.09487192216567,HEALTHY
66.99335687737707,96.82369942742218,1,-5592.9663291921715,7303.002809379864,23465.90990191666,748.6261790929957,551.3271634704608,-1061.919294308518,CRITICAL
88.43154024472189,92.76574999453783,0,9641.5621615082,8592.740723878971,22563.141075274994,-828.2448849201575,-2625.7486376356414,1118.5941787848938,CRITICAL
88.22975341323325,87.99213527665985,0,-13073.476845982508,-8110.092213455552,23721.580147708202,809.273755952483,3595.302964012727,-62.276139338621675,CRITICAL
69.93245186346083,85.72254314704647,0,7897.483782967643,10172.180965079613,18844.909406281564,-2076.097162849321,-656.2185767204821,-95.19449023701407,CRITICAL
47.773120030870274,83.65935093998107,1,3260.166158372092,-2617.8745694498934,17847.84564584624,301.3971688433359,-526.3142679112553,1075.5739094227188,WARNING
85.79302813732964,88.17259881966044,1,496.6120875884272,-2590.868783137291,9731.276597868517,-1116.455458689493,-2173.016563187762,1824.9322803682712,CRITICAL
22.037486426198985,49.4770368292579,0,-346.5845816188192,-281.64738225493073,17025.709245191327,376.80022751397155,136.20791920890437,165.22196733877405,HEALTHY
79.31860965040362,96.45964126967861,0,233.03263872247754,-2386.466974991442,8710.23174722833,1228.545200638773,-32.687521256919545,-2173.360418504931,CRITICAL
21.870461706854048,63.44832664762036,1,-516.6141987601078,-1023.2532233755844,16664.045342697405,-534.9134256308281,-350.1951148810456,-35.498376754856636,HEALTHY
68.19903654004564,97.29200127241633,1,-9230.206111790814,-6447.9663562344995,14354.059191377157,-606.1444654316642,-638.2470541805781,-224.49929841899745,CRITICAL
84.8722082450312,87.92055523429289,0,-6770.512545918323,8497.219932503804,27742.216872421126,-3410.0175454769187,2355.2959689859863,-340.2361504624508,CRITICAL
34.18624553338895,52.516781921152905,0,-760.1730551152203,177.91680700987231,17649.366093031564,297.3327328506348,-280.54854464725344,201.2609659303048,HEALTHY
26.33288350821017,71.40255684185725,0,-842.4974913667011,403.1912107605219,16586.32681488414,108.41798496007473,-167.92405465100967,219.55440419432662,HEALTHY
87.39252754778795,89.86675980469509,1,13195.03876597499,-10971.303439617266,10780.518654134525,-621.4127974570395,276.5399999982551,729.076224858472,CRITICAL
76.28328033148712,98.4769502271783,1,1915.6889868317594,1163.4108222888385,8144.723731583635,892.113888351734,998.7392238760411,-2692.234059034026,CRITICAL
33.488905383870346,78.49045786436626,0,-1069.2868554188253,-1786.9457313398482,17541.346311723566,257.3194738795249,-33.105630270665465,-135.87691396127,HEALTHY
49.32981920673832,92.90258962985583,0,764.9000610945914,3239.9941765994745,17824.571798989065,-705.9369991004214,-1206.1322205038618,217.88318976725338,WARNING
54.962416002218525,78.77857110897389,1,847.3912861922456,4187.382527435678,14829.720860221425,-185.3385380979769,465.15739278302465,-468.93432063685054,WARNING
70.92151773600898,85.21555308890123,0,-5008.571276051505,-478.3427773558854,2114.4422746900013,-672.241196004582,2016.6478061014325,63.947973210629605,CRITICAL
52.834740896280465,88.3790328352125,1,2481.0909029628106,1126.9211113047188,15930.475065191118,303.569372664683,572.2804795765102,462.14423988569996,WARNING
30.083009953476683,47.870351106866224,0,572.3852323079027,-860.5697894225622,14967.063591524347,-333.66897762174517,-43.220874236663846,-203.30487243652047,HEALTHY
88.72603691541593,91.6619927613704,0,6220.969545864743,4993.147870623195,24828.0715362904,-546.4297109006885,1418.1115775788496,185.6147064845424,CRITICAL
20.57542332181962,64.85857690627138,0,-1051.5913932811898,-1152.4225793609908,16294.188826426447,6.563857075863146,152.19535481836533,102.66078211237779,HEALTHY
83.71640485087887,88.61457302357678,1,5358.406961920637,885.9110432247011,23686.779526936672,-3044.410609851708,-697.5505220137386,-143.6262857020692,CRITICAL
42.79481319128708,82.80341430543446,1,-91.50665673736773,-2825.110422910912,18546.678723687404,-573.6407170554684,-490.64724251796895,302.80552545939366,WARNING
29.080154419163456,43.48328198365714,1,1292.0536322271228,-1284.6395953877447,17061.85397484103,329.2658415390913,201.5713794909827,-373.454710327055,HEALTHY
66.88300106361385,94.61446593995998,0,883.8564298788316,115.40357700839246,16985.881128180565,3123.042610893156,2864.9129752285994,-3414.2354483043737,CRITICAL
54.09672395034673,78.1080225747803,1,-460.2482193093705,-2527.28811900537,16191.389269798077,-1991.1213542454827,62.09697439880928,79.953959112246,WARNING
79.45516663245046,99.82083577936163,0,-8523.607065109836,-721.9842766502007,17785.119740070004,-870.107424098745,-2495.524629943923,10.450362308844458,CRITICAL
78.10011439460716,87.07722413144451,0,2495.535954345545,-6544.52229493348,11877.839159085866,1790.9204473496645,1674.4189734573624,1447.5988328888418,CRITICAL
86.20942846681541,90.76036872964436,0,2352.250084094988,2915.4469814725508,9109.64802001394,-1697.074681167473,-815.6568460205331,904.6508292487341,CRITICAL
52.89029648869593,86.9940827302149,1,-5292.929219987791,-25.59849454306128,15440.497589866292,-124.58582418282899,218.80360273489504,451.3889026879579,WARNING
26.959781261605713,45.331370323286926,0,-1233.7728415555555,-164.74093010410206,17310.06824582791,-299.562691308086,120.93681938992037,-59.96269139373251,HEALTHY
82.15189910655425,85.33484309346576,1,-6124.904803861883,-4211.422749144803,12633.227663241028,2178.398854086453,-1237.2839640590569,-4068.226854559658,CRITICAL
41.848422009063576,93.31900941024689,0,308.82300460273257,-541.8294728911542,15735.945467489768,87.06933683540007,-579.8056322438792,84.13899112223855,WARNING
47.702814726231594,76.14013189299385,1,1568.3316105355375,887.8193115090419,15743.073491101224,-453.013905219092,558.2400387038808,-139.40721271124448,WARNING
52.32760052297668,80.13638331611304,0,-2544.3323502236512,909.4247668195758,14672.20961412983,218.0094592403002,33.97739787584467,758.8815821334347,WARNING
51.54818896587634,83.3564370567424,1,-2236.278054045684,-1549.3791416777021,16226.442556550273,151.12017062491807,1130.8443607230565,1042.3637112778083,WARNING
69.53228617971475,94.59630975733397,1,-4406.640000514285,4253.809438421987,16894.319324940927,586.3111119993872,-2039.4730946833372,1391.4148318796938,CRITICAL
68.57499155390916,98.13010430554303,0,-2868.8803362376702,-1828.0737755623827,17429.866021159465,-456.6368520503392,-3828.0116560269744,-1160.255285397879,CRITICAL
40.966778083561856,92.44550392006384,1,-362.58422882105737,-304.2217142181749,17404.24014642486,-632.3051775453764,653.8990095635862,303.4167091896365,WARNING
43.792952600390734,79.56244806640656,0,-3144.113594497617,456.40747673835693,15214.506340059665,792.8915212512779,598.3516009891326,-376.01162373646406,WARNING
71.6772444293892,97.94572065161995,1,-704.5238010302062,-5079.052249964739,16661.3437284564,-51.29509569860227,-40.350822913764205,-180.59250563628592,CRITICAL
81.62452563095077,89.58233133100525,0,6434.2989655031815,3758.718496829629,8785.581050966002,147.81035936020854,-2641.4885652418084,-695.8028858535936,CRITICAL
74.02000983147923,87.74685189676777,1,-3851.0728862710653,3008.259574422902,13657.966904864817,-1018.8150006271086,-1312.7370652919521,1707.8979130660712,CRITICAL
86.48664444926413,99.08182396319614,0,140.20380351357403,12109.889425835305,23301.225729337428,558.1108949216257,162.76411045246573,1216.7792043368368,CRITICAL
50.465160963109625,91.42022519302547,1,919.5954834972414,462.03541903062194,17552.009232069406,888.6155063965148,-244.90928232605646,-451.1870523236932,WARNING
41.977326769120296,75.84723863905565,0,-1751.7779104689346,3297.7613437465816,15545.926374921171,1209.1279872104315,1355.6104287925739,1479.5787080364871,WARNING
31.724488370798706,57.48206087368751,0,1180.6409124521444,-627.3134459513027,16429.222708999983,10.239580376217068,-100.35683856230642,-274.4931095768202,HEALTHY
45.58600778426913,87.2038966329726,1,719.2051091893055,4187.824849225565,16289.705125586022,529.7089019973997,1436.0566248599068,914.6319485065334,WARNING
25.931514019893715,52.528250442806964,0,-1803.7814217781781,-354.987284113288,16290.565929083,45.79648501221561,47.91530807264174,180.7845501473712,HEALTHY
88.7131582311089,89.59430490289503,1,-2116.204770021643,4972.44272211345,12837.72567563895,-2102.327212700388,-3189.6517098016416,2625.4481385453228,CRITICAL
20.665649952998553,74.08774133388032,1,543.4991027893418,1083.6096539054704,15533.443541337805,20.9470597276261,-349.70939699150523,-251.46806008576888,HEALTHY
73.08307748816873,92.17838072620529,0,1596.4699170351482,1755.0282691487794,12866.213427947889,-1805.3968046951316,-89.92630364973296,-2251.345707400218,CRITICAL
22.11917073913259,48.47929963608954,1,-174.95975669540863,-755.7451594928447,16920.509843570402,-179.69359635820746,5.636231473825649,-1.8237993288407088,HEALTHY
34.28332678546392,41.69689192827567,0,475.3660343472122,-146.34235365483607,15459.502790744396,66.03336823859347,291.34199001235885,62.362836695452096,HEALTHY
34.68471672762213,64.13972384173515,0,1481.2385485888035,-478.57744462146707,16982.05769645291,-169.877383031181,-27.356654993885805,217.96710729008672,HEALTHY
87.99053252089992,96.55055535536829,1,-6687.043608564416,-9493.050668659243,13093.577912418614,1250.240912679848,6.127274881348442,-2086.998990189515,CRITICAL
44.7755001663912,89.75222323464266,1,-1677.713822012168,781.7621422068074,22922.48391271782,579.530714908747,-775.9902541598883,-440.2181296402241,WARNING
58.55276598380294,83.14669841006521,0,-2155.905060524488,-1023.3325007568895,19989.2959411587,-634.2269446140938,-974.733703882352,-441.66861415564836,WARNING
22.502445574253944,41.86739279597095,1,-871.5073616580136,229.04973825211889,16406.1964972591,555.4598823138247,19.973900333014686,231.38795311286643,HEALTHY
59.543754782648364,77.22628642955101,1,4013.87623559318,3542.072257035683,20355.224621529847,125.43747138167815,196.32514085741886,-456.82984016947694,WARNING
66.0010320178698,85.26046113827418,1,-15155.767690616272,767.9301820635843,15730.876715603794,336.0512035190629,-1508.6492770928137,-2649.5718207984505,CRITICAL
56.53847817933722,78.12634442798476,1,-1753.1238610101907,2440.346725167303,12443.227508071886,276.3301723755953,253.78016376507293,813.8536410803349,WARNING
69.86350664144358,88.45929653880408,1,2832.4955716452528,2711.940605667109,12331.62107815682,2602.973888511989,-413.885319050222,-1176.7946944714852,CRITICAL
30.08351224700908,40.21356567878754,0,68.94205809604952,281.9867517062979,15729.12402604221,-202.4843997685216,98.43548068567944,72.46300023216192,HEALTHY
31.90764939301792,66.45441574645223,0,-413.42377063644136,32.39621368357873,17846.25460403473,-58.09078324555781,214.50835991455176,285.7520324073541,HEALTHY
49.00057024037375,86.67508377566139,1,636.01719686663,1211.2828269319307,15527.494398072318,511.52826281227453,1020.2390084821901,-1066.7010462131834,WARNING
59.21475677798943,77.39912415496384,1,329.4728955283413,373.53121230222115,19390.0772644489,-1175.9340225534268,87.47703355417943,-846.4036930154955,WARNING
51.7984635654763,92.41201685151424,1,-3573.167199177863,2061.6715617285745,20267.386747639735,27.85961788121131,-467.1688380520897,252.09166589429387,WARNING
80.18834478195126,85.93227890698851,1,-3749.9411097810794,-193.19103558984665,11886.722567516523,-3310.132229019724,-4004.671840890641,2027.8152284502755,CRITICAL
26.938903206577297,41.33071884677434,1,-1137.7379958113922,24.407339533162126,16598.826506116602,-112.35649896600299,-310.68555969335864,349.17426722703146,HEALTHY
44.9681121049371,88.69590804300306,0,-443.39137159977264,483.6634274705976,13964.06902406132,-358.24720688751904,1097.3749760502576,523.9376060685494,WARNING
59.367195630193876,88.12290085118717,1,-1443.3550392708344,-3774.982926448017,24603.402968471848,-98.80477063996398,-228.01722522783396,79.33412473371129,WARNING
23.46243783731018,58.27434579521474,1,694.9979007768749,1946.5428375147656,16123.501438061277,345.3667684437521,19.286743758697988,-136.17745640781635,HEALTHY
56.38064041672746,86.4553580575512,1,1685.360012799973,1790.6562411713228,13246.127331987105,-1026.2267410142106,-0.09218035885650101,1254.2475915293514,WARNING
77.02294189771632,93.3468156789376,1,-7388.997463329597,6495.749526013263,13414.716050924082,-2568.738816618348,3254.2361043195156,2214.6233386815484,CRITICAL
22.28435370601483,50.5590207883932,0,208.0550318240541,-723.1312980172579,17292.81241134997,-81.59429562025059,-266.8321518009982,-56.745500890655556,HEALTHY
71.9980871499805,94.5972678939779,1,7698.658303872289,-5488.1916358318995,20167.429047158734,-2276.3963609135594,-366.75258262584236,711.5331022402663,CRITICAL
56.99604521604707,76.19809402006727,0,1374.5046569266722,2827.1733963694132,15539.475569628203,752.1552988621253,1042.9342573650408,199.11173683185004,WARNING
32.40061039612231,79.36052652841857,0,-1075.264588226335,329.83995362334275,19016.92443692985,-361.12109458135325,-103.24841740183206,-135.30102428982718,HEALTHY
82.48609282346231,93.07007177327175,1,564.2567459661536,3408.312937871878,16879.097036501567,3286.532479819313,1503.9990571646908,-912.8494650230018,CRITICAL
45.05122142539051,82.44559313619816,0,-773.7747148180732,480.01059242169185,17077.789647204725,224.1314984453111,-96.8346974114646,-264.19638079123104,WARNING
78.29963738693864,96.7009411351892,1,-387.30896006663323,-3422.858806095073,12751.29228373424,264.08069336999415,633.3196239010147,737.4112752088467,CRITICAL
33.732324463820625,41.35783914343195,0,-819.2643935548025,615.7087491645401,16187.99736875767,-192.76150201944364,131.37667324486856,158.3298295845582,HEALTHY
25.772054258316548,59.57505795882681,0,975.816719344709,918.4544439424138,15138.282623553616,10.986822199969746,-141.91597094983453,-251.7009821350669,HEALTHY
44.860038282575715,90.90923842442935,1,1705.8469551491478,2366.4425089334663,17894.129112304057,-287.02058807723756,-49.58579354126316,63.78740707736381,WARNING
85.5712226380611,97.75735282873845,1,4428.778746355481,865.8612381730702,13777.468864674514,669.6012786965586,405.5856132377772,-4842.825276627121,CRITICAL
33.85614696899973,49.1922536569066,1,1089.90495909083,-571.1839740841864,16427.82879946043,191.16054902249618,-96.85167038616605,-9.185765748032129,HEALTHY
55.03652776852506,83.9937934673868,1,1721.9232208916003,-2751.5908445872296,16108.860660525985,-663.3921428520496,-1674.8212421634953,-102.18006717992442,WARNING
33.962109459747346,45.028970759689045,0,1075.1759356684586,-1368.7045435596683,17931.999753924018,-152.281508656961,38.45859562837919,-29.644575518354078,HEALTHY
55.64202450968213,85.6564972262522,1,-2765.860392692772,254.13940391507302,15023.313917688654,-754.4207544512404,-563.053051233832,158.05162385986483,WARNING
65.90786848339339,99.347901243659,1,-4063.346106178357,716.3412944270956,13234.751101246806,-1949.4334131916114,569.926160491981,-4244.676846240408,CRITICAL
25.98254044555594,76.90492232351158,0,-100.15407647995278,-203.67375017696588,15506.017413243439,-165.376070807972,-45.29577838030535,73.47310136323561,HEALTHY
54.82903536078716,88.93212774721624,0,1996.6205179778585,2304.8415032133894,18691.583593089323,385.8791456342969,-797.5003114471875,1190.68006359155,WARNING
83.71967844555729,85.85460288408056,0,921.6115191919439,-5990.462640219898,8304.348238663564,-880.840255148688,-2666.822772273677,1343.5938903724955,CRITICAL
40.59165689090475,82.25885184351291,0,1160.6593580894826,1419.9863488106046,19324.564266896323,-899.0603828564392,14.019137862821001,-747.6170631238243,WARNING
27.81152212751319,64.65998907580334,1,-364.9527295428853,-839.2096673390064,15339.190805978966,-393.27131787520034,411.2414259880644,-220.64167314433664,HEALTHY
85.55428351897037,96.52971753474975,0,-5609.762566111605,-4806.95806388185,9947.955865118574,-2124.7135993321563,-3182.3402119279945,752.4262876495623,CRITICAL
32.56050619655226,46.78913714307693,1,-179.1497576634285,-1268.0142073833765,18289.941348457563,-92.63352261455827,48.64891397112544,143.5381482878927,HEALTHY
